subject,TrialNumber,gestures,target,corrAns,condition,gestureSet,ran,order,RT,answer,correct
CH29TH2,1,gestures/cat_S.mp4,lo_k,o,G,cat,1.0,0.0,1.7154291,o,True
CH29TH2,2,gestures/boy_S.mp4,po_nt,i,G,boy,1.0,1.0,1.7962933,i,True
CH29TH2,3,gestures/baby_S.mp4,sm_le,i,G,baby,1.0,2.0,3.7962704,i,True
CH29TH2,4,gestures/horse_S.mp4,w_lk,a,G,horse,1.0,3.0,1.6314745,a,True
CH29TH2,5,gestures/cat_S.mp4,n_se,o,G,cat,1.0,4.0,1.5817386,o,True
CH29TH2,6,gestures/boy_S.mp4,bo_k,o,G,boy,1.0,5.0,1.7515804,o,True
CH29TH2,7,gestures/frog_S.mp4,tong_e,u,G,frog,1.0,6.0,15.849418,a,False
CH29TH2,8,gestures/car_S.mp4,cr_sh,a,G,car,1.0,7.0,1.6709442,a,True
CH29TH2,9,gestures/car_S.mp4,whe_l,e,G,car,1.0,8.0,2.205673,e,True
CH29TH2,10,gestures/girl_S.mp4,dr_ss,e,G,girl,1.0,9.0,1.9858166,e,True
CH29TH2,11,gestures/car_S.mp4,m_ve,o,G,car,1.0,10.0,2.24666,o,True
CH29TH2,12,gestures/baby_S.mp4,bl_nket,a,G,baby,1.0,11.0,1.9796944,e,False
CH29TH2,13,gestures/cat_S.mp4,ta_l,i,G,cat,1.0,12.0,1.8650397,i,True
CH29TH2,14,gestures/boy_S.mp4,w_ve,a,G,boy,1.0,13.0,9.824969,a,True
CH29TH2,15,gestures/girl_S.mp4,wh_stle,i,G,girl,1.0,14.0,2.4435399,i,True
CH29TH2,16,gestures/horse_S.mp4,k_ck,i,G,horse,1.0,15.0,1.438026,i,True
CH29TH2,17,gestures/dog_S.mp4,b_rk,a,G,dog,1.0,16.0,2.8156626,o,False
CH29TH2,18,gestures/frog_S.mp4,list_n,e,G,frog,1.0,17.0,1.9923387,i,False
CH29TH2,19,gestures/frog_S.mp4,j_mp,u,G,frog,1.0,18.0,1.8687836,u,True
CH29TH2,20,gestures/baby_S.mp4,t_ddy,e,G,baby,1.0,19.0,1.6586823,e,True
CH29TH2,21,gestures/cat_S.mp4,sl_ep,e,G,cat,1.0,20.0,2.816906,e,True
CH29TH2,22,gestures/girl_S.mp4,h_g,u,G,girl,1.0,21.0,1.6292737,u,True
CH29TH2,23,gestures/dog_S.mp4,to_th,o,G,dog,1.0,22.0,2.6382613,o,True
CH29TH2,24,gestures/horse_S.mp4,mo_th,u,G,horse,1.0,23.0,1.632268,u,True
CH29TH2,25,gestures/dog_S.mp4,n_ck,e,G,dog,1.0,24.0,1.7625242,e,True
CH29TH2,26,gestures/girl_S.mp4,ha_r,i,G,girl,1.0,25.0,2.2508352,e,False
CH29TH2,27,gestures/dog_S.mp4,pl_y,a,G,dog,1.0,26.0,1.7438071,a,True
CH29TH2,28,gestures/boy_S.mp4,t-sh_rt,i,G,boy,1.0,27.0,2.0326097,i,True
CH29TH2,29,gestures/car_S.mp4,wind_w,o,G,car,1.0,28.0,1.9077353,o,True
CH29TH2,30,gestures/horse_S.mp4,h_ad,e,G,horse,1.0,29.0,4.393581,a,False
CH29TH2,31,gestures/frog_S.mp4,fo_t,o,G,frog,1.0,30.0,1.7123083,o,True
CH29TH2,32,gestures/baby_S.mp4,cr_wl,a,G,baby,1.0,31.0,1.683522,a,True
CH29TH2,33,gestures/car_PL.mp4,m_ve,o,S,car,1.0,32.0,1.610259,o,True
CH29TH2,34,gestures/horse_POS.mp4,mo_th,u,S,horse,1.0,33.0,2.5587335,u,True
CH29TH2,35,gestures/dog_PL.mp4,b_rk,a,S,dog,1.0,34.0,2.6782444,o,False
CH29TH2,36,gestures/cat_POS.mp4,n_se,o,S,cat,1.0,35.0,1.3874073,o,True
CH29TH2,37,gestures/girl_POS.mp4,ha_r,i,S,girl,1.0,36.0,1.6318591,i,True
CH29TH2,38,gestures/dog_POS.mp4,to_th,o,S,dog,1.0,37.0,1.8798366,u,False
CH29TH2,39,gestures/girl_POS.mp4,dr_ss,e,S,girl,1.0,38.0,2.091841,e,True
CH29TH2,40,gestures/dog_PL.mp4,pl_y,a,S,dog,1.0,39.0,1.2493678,a,True
CH29TH2,41,gestures/car_PL.mp4,cr_sh,a,S,car,1.0,40.0,1.6267139,a,True
CH29TH2,42,gestures/boy_POS.mp4,t-sh_rt,i,S,boy,1.0,41.0,1.689686,i,True
CH29TH2,43,gestures/cat_POS.mp4,ta_l,i,S,cat,1.0,42.0,1.6675682,i,True
CH29TH2,44,gestures/horse_PL.mp4,w_lk,a,S,horse,1.0,43.0,1.3312302,a,True
CH29TH2,45,gestures/frog_PL.mp4,j_mp,u,S,frog,1.0,44.0,1.7882198,u,True
CH29TH2,46,gestures/boy_PL.mp4,w_ve,a,S,boy,1.0,45.0,3.714713,a,True
CH29TH2,47,gestures/cat_PL.mp4,sl_ep,e,S,cat,1.0,46.0,1.5697547,e,True
CH29TH2,48,gestures/frog_POS.mp4,fo_t,o,S,frog,1.0,47.0,1.1767266,o,True
CH29TH2,49,gestures/frog_PL.mp4,list_n,e,S,frog,1.0,48.0,2.929735,e,True
CH29TH2,50,gestures/car_POS.mp4,wind_w,o,S,car,1.0,49.0,1.4130023,o,True
CH29TH2,51,gestures/boy_POS.mp4,bo_k,o,S,boy,1.0,50.0,1.1533085,o,True
CH29TH2,52,gestures/baby_POS.mp4,t_ddy,e,S,baby,1.0,51.0,2.0926466,a,False
CH29TH2,53,gestures/baby_POS.mp4,bl_nket,a,S,baby,1.0,52.0,1.7158284,e,False
CH29TH2,54,gestures/car_POS.mp4,whe_l,e,S,car,1.0,53.0,1.5034604,e,True
CH29TH2,55,gestures/dog_POS.mp4,n_ck,e,S,dog,1.0,54.0,1.3916426,e,True
CH29TH2,56,gestures/horse_PL.mp4,k_ck,i,S,horse,1.0,55.0,2.00738,i,True
CH29TH2,57,gestures/baby_PL.mp4,sm_le,i,S,baby,1.0,56.0,4.681583,a,False
CH29TH2,58,gestures/girl_PL.mp4,h_g,u,S,girl,1.0,57.0,1.8274914,u,True
CH29TH2,59,gestures/frog_POS.mp4,tong_e,u,S,frog,1.0,58.0,5.5618,o,False
CH29TH2,60,gestures/girl_PL.mp4,wh_stle,i,S,girl,1.0,59.0,2.24889,i,True
CH29TH2,61,gestures/horse_POS.mp4,h_ad,e,S,horse,1.0,60.0,14.623087,a,False
CH29TH2,62,gestures/cat_PL.mp4,lo_k,o,S,cat,1.0,61.0,1.2122295,o,True
CH29TH2,63,gestures/boy_PL.mp4,po_nt,i,S,boy,1.0,62.0,1.9680517,i,True
CH29TH2,64,gestures/baby_PL.mp4,cr_wl,a,S,baby,1.0,63.0,4.394068,e,False
