subject,TrialNumber,gestures,target,corrAns,condition,gestureSet,ran,order,RT,answer,correct
CL18JE1,1,gestures/boy_S.mp4,bo_k,o,G,boy,1.0,0.0,2.187936,o,True
CL18JE1,2,gestures/cat_S.mp4,ta_l,i,G,cat,1.0,1.0,2.5406911,i,True
CL18JE1,3,gestures/girl_S.mp4,ha_r,i,G,girl,1.0,2.0,2.6358755,a,False
CL18JE1,4,gestures/boy_S.mp4,t-sh_rt,i,G,boy,1.0,3.0,3.2960012,i,True
CL18JE1,5,gestures/frog_S.mp4,j_mp,u,G,frog,1.0,4.0,3.3095024,u,True
CL18JE1,6,gestures/car_S.mp4,m_ve,o,G,car,1.0,5.0,1.7430626,o,True
CL18JE1,7,gestures/frog_S.mp4,list_n,e,G,frog,1.0,6.0,4.1298995,e,True
CL18JE1,8,gestures/baby_S.mp4,bl_nket,a,G,baby,1.0,7.0,2.4274852,a,True
CL18JE1,9,gestures/girl_S.mp4,wh_stle,i,G,girl,1.0,8.0,3.9022102,i,True
CL18JE1,10,gestures/cat_S.mp4,lo_k,o,G,cat,1.0,9.0,2.578654,o,True
CL18JE1,11,gestures/baby_S.mp4,cr_wl,a,G,baby,1.0,10.0,6.635804,a,True
CL18JE1,12,gestures/car_S.mp4,whe_l,e,G,car,1.0,11.0,2.8455179,e,True
CL18JE1,13,gestures/cat_S.mp4,sl_ep,e,G,cat,1.0,12.0,2.399851,e,True
CL18JE1,14,gestures/car_S.mp4,wind_w,o,G,car,1.0,13.0,2.2476833,o,True
CL18JE1,15,gestures/horse_S.mp4,mo_th,u,G,horse,1.0,14.0,3.8234892,o,False
CL18JE1,16,gestures/girl_S.mp4,h_g,u,G,girl,1.0,15.0,5.7018566,i,False
CL18JE1,17,gestures/dog_S.mp4,n_ck,e,G,dog,1.0,16.0,2.7475352,e,True
CL18JE1,18,gestures/dog_S.mp4,b_rk,a,G,dog,1.0,17.0,10.736679,a,True
CL18JE1,19,gestures/horse_S.mp4,k_ck,i,G,horse,1.0,18.0,2.5281491,i,True
CL18JE1,20,gestures/cat_S.mp4,n_se,o,G,cat,1.0,19.0,2.0643563,o,True
CL18JE1,21,gestures/horse_S.mp4,w_lk,a,G,horse,1.0,20.0,2.246197,a,True
CL18JE1,22,gestures/dog_S.mp4,pl_y,a,G,dog,1.0,21.0,1.6105516,a,True
CL18JE1,23,gestures/boy_S.mp4,w_ve,a,G,boy,1.0,22.0,2.471582,a,True
CL18JE1,24,gestures/boy_S.mp4,po_nt,i,G,boy,1.0,23.0,3.8358822,a,False
CL18JE1,25,gestures/frog_S.mp4,fo_t,o,G,frog,1.0,24.0,2.6233034,o,True
CL18JE1,26,gestures/horse_S.mp4,h_ad,e,G,horse,1.0,25.0,6.423815,e,True
CL18JE1,27,gestures/girl_S.mp4,dr_ss,e,G,girl,1.0,26.0,2.3733716,e,True
CL18JE1,28,gestures/baby_S.mp4,sm_le,i,G,baby,1.0,27.0,3.7713697,i,True
CL18JE1,29,gestures/baby_S.mp4,t_ddy,e,G,baby,1.0,28.0,2.1298156,e,True
CL18JE1,30,gestures/frog_S.mp4,tong_e,u,G,frog,1.0,29.0,3.3088048,u,True
CL18JE1,31,gestures/dog_S.mp4,to_th,o,G,dog,1.0,30.0,2.726533,o,True
CL18JE1,32,gestures/car_S.mp4,cr_sh,a,G,car,1.0,31.0,5.5299454,a,True
CL18JE1,33,gestures/boy_POS.mp4,bo_k,o,S,boy,1.0,32.0,2.3151007,o,True
CL18JE1,34,gestures/dog_POS.mp4,to_th,o,S,dog,1.0,33.0,2.6393974,o,True
CL18JE1,35,gestures/cat_PL.mp4,sl_ep,e,S,cat,1.0,34.0,2.127932,e,True
CL18JE1,36,gestures/horse_PL.mp4,k_ck,i,S,horse,1.0,35.0,2.627143,i,True
CL18JE1,37,gestures/car_PL.mp4,m_ve,o,S,car,1.0,36.0,2.2178652,o,True
CL18JE1,38,gestures/horse_POS.mp4,mo_th,u,S,horse,1.0,37.0,3.443045,u,True
CL18JE1,39,gestures/horse_POS.mp4,h_ad,e,S,horse,1.0,38.0,8.969048,e,True
CL18JE1,40,gestures/frog_PL.mp4,j_mp,u,S,frog,1.0,39.0,2.0123956,u,True
CL18JE1,41,gestures/boy_POS.mp4,t-sh_rt,i,S,boy,1.0,40.0,2.2819796,i,True
CL18JE1,42,gestures/car_POS.mp4,whe_l,e,S,car,1.0,41.0,2.5436592,e,True
CL18JE1,43,gestures/dog_PL.mp4,b_rk,a,S,dog,1.0,42.0,4.3595867,a,True
CL18JE1,44,gestures/girl_PL.mp4,wh_stle,i,S,girl,1.0,43.0,2.6649382,i,True
CL18JE1,45,gestures/dog_PL.mp4,pl_y,a,S,dog,1.0,44.0,2.2727711,a,True
CL18JE1,46,gestures/frog_POS.mp4,tong_e,u,S,frog,1.0,45.0,2.786097,u,True
CL18JE1,47,gestures/baby_PL.mp4,cr_wl,a,S,baby,1.0,46.0,2.5067,a,True
CL18JE1,48,gestures/frog_POS.mp4,fo_t,o,S,frog,1.0,47.0,2.4031477,o,True
CL18JE1,49,gestures/horse_PL.mp4,w_lk,a,S,horse,1.0,48.0,2.3960254,a,True
CL18JE1,50,gestures/frog_PL.mp4,list_n,e,S,frog,1.0,49.0,3.06734,e,True
CL18JE1,51,gestures/baby_PL.mp4,sm_le,i,S,baby,1.0,50.0,3.2087555,i,True
CL18JE1,52,gestures/dog_POS.mp4,n_ck,e,S,dog,1.0,51.0,2.2824793,e,True
CL18JE1,53,gestures/baby_POS.mp4,t_ddy,e,S,baby,1.0,52.0,1.7001842,e,True
CL18JE1,54,gestures/boy_PL.mp4,w_ve,a,S,boy,1.0,53.0,2.140256,a,True
CL18JE1,55,gestures/girl_PL.mp4,h_g,u,S,girl,1.0,54.0,2.2332776,u,True
CL18JE1,56,gestures/cat_POS.mp4,ta_l,i,S,cat,1.0,55.0,1.9175853,i,True
CL18JE1,57,gestures/girl_POS.mp4,ha_r,i,S,girl,1.0,56.0,2.6072817,e,False
CL18JE1,58,gestures/cat_PL.mp4,lo_k,o,S,cat,1.0,57.0,2.2029278,o,True
CL18JE1,59,gestures/baby_POS.mp4,bl_nket,a,S,baby,1.0,58.0,2.3140485,a,True
CL18JE1,60,gestures/car_POS.mp4,wind_w,o,S,car,1.0,59.0,2.0059717,o,True
CL18JE1,61,gestures/car_PL.mp4,cr_sh,a,S,car,1.0,60.0,1.5252942,a,True
CL18JE1,62,gestures/cat_POS.mp4,n_se,o,S,cat,1.0,61.0,2.4993155,o,True
CL18JE1,63,gestures/girl_POS.mp4,dr_ss,e,S,girl,1.0,62.0,2.2597535,e,True
CL18JE1,64,gestures/boy_PL.mp4,po_nt,i,S,boy,1.0,63.0,2.385796,i,True
