subject,TrialNumber,gestures,target,corrAns,condition,gestureSet,ran,order,RT,answer,correct
CL18JE2,1,gestures/boy_POS.mp4,bo_k,o,S,boy,1.0,0.0,2.4343538,o,True
CL18JE2,2,gestures/baby_PL.mp4,sm_le,i,S,baby,1.0,1.0,2.8613114,i,True
CL18JE2,3,gestures/horse_PL.mp4,w_lk,a,S,horse,1.0,2.0,2.4486074,a,True
CL18JE2,4,gestures/frog_POS.mp4,tong_e,u,S,frog,1.0,3.0,2.4014235,u,True
CL18JE2,5,gestures/dog_POS.mp4,n_ck,e,S,dog,1.0,4.0,2.0116258,e,True
CL18JE2,6,gestures/car_POS.mp4,wind_w,o,S,car,1.0,5.0,1.9450995,o,True
CL18JE2,7,gestures/car_POS.mp4,whe_l,e,S,car,1.0,6.0,3.5090137,e,True
CL18JE2,8,gestures/cat_POS.mp4,n_se,o,S,cat,1.0,7.0,2.0329003,o,True
CL18JE2,9,gestures/dog_POS.mp4,to_th,o,S,dog,1.0,8.0,2.7696326,o,True
CL18JE2,10,gestures/cat_PL.mp4,sl_ep,e,S,cat,1.0,9.0,1.8421633,e,True
CL18JE2,11,gestures/boy_POS.mp4,t-sh_rt,i,S,boy,1.0,10.0,2.4375598,i,True
CL18JE2,12,gestures/girl_POS.mp4,ha_r,i,S,girl,1.0,11.0,2.1758094,i,True
CL18JE2,13,gestures/cat_POS.mp4,ta_l,i,S,cat,1.0,12.0,1.7657987,i,True
CL18JE2,14,gestures/cat_PL.mp4,lo_k,o,S,cat,1.0,13.0,1.7006302,o,True
CL18JE2,15,gestures/girl_POS.mp4,dr_ss,e,S,girl,1.0,14.0,2.1252525,e,True
CL18JE2,16,gestures/car_PL.mp4,m_ve,o,S,car,1.0,15.0,2.0733294,o,True
CL18JE2,17,gestures/boy_PL.mp4,po_nt,i,S,boy,1.0,16.0,1.376275,i,True
CL18JE2,18,gestures/boy_PL.mp4,w_ve,a,S,boy,1.0,17.0,1.9986259,a,True
CL18JE2,19,gestures/girl_PL.mp4,wh_stle,i,S,girl,1.0,18.0,1.703031,i,True
CL18JE2,20,gestures/dog_PL.mp4,b_rk,a,S,dog,1.0,19.0,2.0611103,a,True
CL18JE2,21,gestures/frog_PL.mp4,j_mp,u,S,frog,1.0,20.0,3.245442,u,True
CL18JE2,22,gestures/baby_POS.mp4,t_ddy,e,S,baby,1.0,21.0,1.9249016,e,True
CL18JE2,23,gestures/car_PL.mp4,cr_sh,a,S,car,1.0,22.0,2.4472277,a,True
CL18JE2,24,gestures/horse_POS.mp4,mo_th,u,S,horse,1.0,23.0,3.5136635,u,True
CL18JE2,25,gestures/frog_POS.mp4,fo_t,o,S,frog,1.0,24.0,2.517782,o,True
CL18JE2,26,gestures/dog_PL.mp4,pl_y,a,S,dog,1.0,25.0,1.9339366,a,True
CL18JE2,27,gestures/baby_POS.mp4,bl_nket,a,S,baby,1.0,26.0,1.4411912,a,True
CL18JE2,28,gestures/horse_PL.mp4,k_ck,i,S,horse,1.0,27.0,1.9467753,i,True
CL18JE2,29,gestures/baby_PL.mp4,cr_wl,a,S,baby,1.0,28.0,1.5616208,a,True
CL18JE2,30,gestures/horse_POS.mp4,h_ad,e,S,horse,1.0,29.0,3.8255424,e,True
CL18JE2,31,gestures/frog_PL.mp4,list_n,e,S,frog,1.0,30.0,2.3735976,e,True
CL18JE2,32,gestures/girl_PL.mp4,h_g,u,S,girl,1.0,31.0,1.8852836,u,True
CL18JE2,33,gestures/horse_S.mp4,w_lk,a,G,horse,1.0,32.0,1.5674386,a,True
CL18JE2,34,gestures/boy_S.mp4,w_ve,a,G,boy,1.0,33.0,1.881859,a,True
CL18JE2,35,gestures/girl_S.mp4,ha_r,i,G,girl,1.0,34.0,1.9777457,i,True
CL18JE2,36,gestures/car_S.mp4,whe_l,e,G,car,1.0,35.0,1.5021145,e,True
CL18JE2,37,gestures/cat_S.mp4,n_se,o,G,cat,1.0,36.0,2.0666454,o,True
CL18JE2,38,gestures/frog_S.mp4,j_mp,u,G,frog,1.0,37.0,3.2912934,u,True
CL18JE2,39,gestures/horse_S.mp4,h_ad,e,G,horse,1.0,38.0,2.6078737,e,True
CL18JE2,40,gestures/baby_S.mp4,cr_wl,a,G,baby,1.0,39.0,1.7907223,a,True
CL18JE2,41,gestures/frog_S.mp4,tong_e,u,G,frog,1.0,40.0,2.2177632,u,True
CL18JE2,42,gestures/cat_S.mp4,ta_l,i,G,cat,1.0,41.0,1.7927719,i,True
CL18JE2,43,gestures/baby_S.mp4,t_ddy,e,G,baby,1.0,42.0,1.9593441,e,True
CL18JE2,44,gestures/dog_S.mp4,n_ck,e,G,dog,1.0,43.0,2.334505,e,True
CL18JE2,45,gestures/car_S.mp4,cr_sh,a,G,car,1.0,44.0,2.2857282,a,True
CL18JE2,46,gestures/horse_S.mp4,k_ck,i,G,horse,1.0,45.0,1.823546,i,True
CL18JE2,47,gestures/cat_S.mp4,sl_ep,e,G,cat,1.0,46.0,1.4874941,e,True
CL18JE2,48,gestures/boy_S.mp4,t-sh_rt,i,G,boy,1.0,47.0,1.83757,i,True
CL18JE2,49,gestures/girl_S.mp4,h_g,u,G,girl,1.0,48.0,1.2927358,u,True
CL18JE2,50,gestures/dog_S.mp4,to_th,o,G,dog,1.0,49.0,2.2982044,o,True
CL18JE2,51,gestures/cat_S.mp4,lo_k,o,G,cat,1.0,50.0,1.8321576,o,True
CL18JE2,52,gestures/girl_S.mp4,wh_stle,i,G,girl,1.0,51.0,1.9017738,i,True
CL18JE2,53,gestures/frog_S.mp4,list_n,e,G,frog,1.0,52.0,1.3856075,e,True
CL18JE2,54,gestures/car_S.mp4,m_ve,o,G,car,1.0,53.0,2.192346,o,True
CL18JE2,55,gestures/boy_S.mp4,po_nt,i,G,boy,1.0,54.0,2.0173519,i,True
CL18JE2,56,gestures/car_S.mp4,wind_w,o,G,car,1.0,55.0,1.5272131,o,True
CL18JE2,57,gestures/girl_S.mp4,dr_ss,e,G,girl,1.0,56.0,2.7404394,e,True
CL18JE2,58,gestures/baby_S.mp4,sm_le,i,G,baby,1.0,57.0,2.0372324,i,True
CL18JE2,59,gestures/dog_S.mp4,b_rk,a,G,dog,1.0,58.0,1.2903684,a,True
CL18JE2,60,gestures/boy_S.mp4,bo_k,o,G,boy,1.0,59.0,2.914021,o,True
CL18JE2,61,gestures/frog_S.mp4,fo_t,o,G,frog,1.0,60.0,2.0830317,o,True
CL18JE2,62,gestures/dog_S.mp4,pl_y,a,G,dog,1.0,61.0,1.3374761,a,True
CL18JE2,63,gestures/horse_S.mp4,mo_th,u,G,horse,1.0,62.0,3.4660277,u,True
CL18JE2,64,gestures/baby_S.mp4,bl_nket,a,G,baby,1.0,63.0,2.5971086,a,True
