subject,TrialNumber,gestures,target,corrAns,condition,gestureSet,ran,order,RT,answer,correct
EB12AY2,1,gestures/boy_S.mp4,w_ve,a,G,boy,1.0,0.0,2.011337,a,True
EB12AY2,2,gestures/girl_S.mp4,h_g,u,G,girl,1.0,1.0,2.556327,a,False
EB12AY2,3,gestures/baby_S.mp4,sm_le,i,G,baby,1.0,2.0,2.2742193,i,True
EB12AY2,4,gestures/car_S.mp4,wind_w,o,G,car,1.0,3.0,3.6072185,o,True
EB12AY2,5,gestures/horse_S.mp4,h_ad,e,G,horse,1.0,4.0,4.684665,e,True
EB12AY2,6,gestures/girl_S.mp4,wh_stle,i,G,girl,1.0,5.0,5.1177197,e,False
EB12AY2,7,gestures/dog_S.mp4,n_ck,e,G,dog,1.0,6.0,2.5036278,a,False
EB12AY2,8,gestures/horse_S.mp4,mo_th,u,G,horse,1.0,7.0,3.0531476,a,False
EB12AY2,9,gestures/frog_S.mp4,j_mp,u,G,frog,1.0,8.0,1.8744231,u,True
EB12AY2,10,gestures/baby_S.mp4,cr_wl,a,G,baby,1.0,9.0,5.419077,a,True
EB12AY2,11,gestures/cat_S.mp4,n_se,o,G,cat,1.0,10.0,7.542108,a,False
EB12AY2,12,gestures/baby_S.mp4,t_ddy,e,G,baby,1.0,11.0,4.139893,a,False
EB12AY2,13,gestures/cat_S.mp4,lo_k,o,G,cat,1.0,12.0,2.0875623,o,True
EB12AY2,14,gestures/boy_S.mp4,t-sh_rt,i,G,boy,1.0,13.0,3.5583818,e,False
EB12AY2,15,gestures/dog_S.mp4,pl_y,a,G,dog,1.0,14.0,3.171386,e,False
EB12AY2,16,gestures/baby_S.mp4,bl_nket,a,G,baby,1.0,15.0,4.402103,a,True
EB12AY2,17,gestures/horse_S.mp4,w_lk,a,G,horse,1.0,16.0,6.0715156,a,True
EB12AY2,18,gestures/boy_S.mp4,po_nt,i,G,boy,1.0,17.0,3.464877,o,False
EB12AY2,19,gestures/boy_S.mp4,bo_k,o,G,boy,1.0,18.0,3.4234197,o,True
EB12AY2,20,gestures/cat_S.mp4,ta_l,i,G,cat,1.0,19.0,2.3725724,i,True
EB12AY2,21,gestures/dog_S.mp4,b_rk,a,G,dog,1.0,20.0,2.5984492,a,True
EB12AY2,22,gestures/cat_S.mp4,sl_ep,e,G,cat,1.0,21.0,3.1404333,i,False
EB12AY2,23,gestures/horse_S.mp4,k_ck,i,G,horse,1.0,22.0,3.4524236,i,True
EB12AY2,24,gestures/frog_S.mp4,fo_t,o,G,frog,1.0,23.0,1.6480328,o,True
EB12AY2,25,gestures/frog_S.mp4,list_n,e,G,frog,1.0,24.0,4.6387243,e,True
EB12AY2,26,gestures/car_S.mp4,cr_sh,a,G,car,1.0,25.0,4.509205,a,True
EB12AY2,27,gestures/car_S.mp4,m_ve,o,G,car,1.0,26.0,5.633381,i,False
EB12AY2,28,gestures/car_S.mp4,whe_l,e,G,car,1.0,27.0,2.5584292,i,False
EB12AY2,29,gestures/girl_S.mp4,dr_ss,e,G,girl,1.0,28.0,2.1327772,e,True
EB12AY2,30,gestures/girl_S.mp4,ha_r,i,G,girl,1.0,29.0,2.2103837,i,True
EB12AY2,31,gestures/frog_S.mp4,tong_e,u,G,frog,1.0,30.0,5.367036,i,False
EB12AY2,32,gestures/dog_S.mp4,to_th,o,G,dog,1.0,31.0,3.1886125,u,False
EB12AY2,33,gestures/horse_POS.mp4,mo_th,u,S,horse,1.0,32.0,1.4992487,o,False
EB12AY2,34,gestures/car_POS.mp4,whe_l,e,S,car,1.0,33.0,0.2699332,a,False
EB12AY2,35,gestures/girl_POS.mp4,dr_ss,e,S,girl,1.0,34.0,1.6143309,i,False
EB12AY2,36,gestures/horse_POS.mp4,h_ad,e,S,horse,1.0,35.0,2.6447577,e,True
EB12AY2,37,gestures/girl_POS.mp4,ha_r,i,S,girl,1.0,36.0,2.7594824,i,True
EB12AY2,38,gestures/baby_POS.mp4,bl_nket,a,S,baby,1.0,37.0,2.9054003,a,True
EB12AY2,39,gestures/boy_POS.mp4,t-sh_rt,i,S,boy,1.0,38.0,2.453903,e,False
EB12AY2,40,gestures/dog_POS.mp4,to_th,o,S,dog,1.0,39.0,2.2137606,u,False
EB12AY2,41,gestures/cat_PL.mp4,lo_k,o,S,cat,1.0,40.0,1.9944565,o,True
EB12AY2,42,gestures/dog_PL.mp4,b_rk,a,S,dog,1.0,41.0,1.9124957,a,True
EB12AY2,43,gestures/dog_PL.mp4,pl_y,a,S,dog,1.0,42.0,2.5635016,a,True
EB12AY2,44,gestures/cat_PL.mp4,sl_ep,e,S,cat,1.0,43.0,2.6972291,e,True
EB12AY2,45,gestures/dog_POS.mp4,n_ck,e,S,dog,1.0,44.0,1.7192168,a,False
EB12AY2,46,gestures/frog_PL.mp4,j_mp,u,S,frog,1.0,45.0,1.7540131,u,True
EB12AY2,47,gestures/girl_PL.mp4,wh_stle,i,S,girl,1.0,46.0,4.958215,e,False
EB12AY2,48,gestures/cat_POS.mp4,n_se,o,S,cat,1.0,47.0,2.421391,o,True
EB12AY2,49,gestures/boy_POS.mp4,bo_k,o,S,boy,1.0,48.0,3.1139457,o,True
EB12AY2,50,gestures/baby_PL.mp4,sm_le,i,S,baby,1.0,49.0,3.0221016,a,False
EB12AY2,51,gestures/boy_PL.mp4,po_nt,i,S,boy,1.0,50.0,3.2802513,o,False
EB12AY2,52,gestures/frog_PL.mp4,list_n,e,S,frog,1.0,51.0,2.9162066,e,True
EB12AY2,53,gestures/baby_PL.mp4,cr_wl,a,S,baby,1.0,52.0,2.3555417,a,True
EB12AY2,54,gestures/horse_PL.mp4,k_ck,i,S,horse,1.0,53.0,3.2650867,a,False
EB12AY2,55,gestures/horse_PL.mp4,w_lk,a,S,horse,1.0,54.0,2.71561,a,True
EB12AY2,56,gestures/baby_POS.mp4,t_ddy,e,S,baby,1.0,55.0,1.2311034,a,False
EB12AY2,57,gestures/car_PL.mp4,cr_sh,a,S,car,1.0,56.0,2.3351388,a,True
EB12AY2,58,gestures/frog_POS.mp4,tong_e,u,S,frog,1.0,57.0,9.229968,a,False
EB12AY2,59,gestures/car_POS.mp4,wind_w,o,S,car,1.0,58.0,3.065969,o,True
EB12AY2,60,gestures/boy_PL.mp4,w_ve,a,S,boy,1.0,59.0,1.8750544,a,True
EB12AY2,61,gestures/cat_POS.mp4,ta_l,i,S,cat,1.0,60.0,2.0316572,i,True
EB12AY2,62,gestures/car_PL.mp4,m_ve,o,S,car,1.0,61.0,8.10709,i,False
EB12AY2,63,gestures/frog_POS.mp4,fo_t,o,S,frog,1.0,62.0,1.7051274,o,True
EB12AY2,64,gestures/girl_PL.mp4,h_g,u,S,girl,1.0,63.0,2.219122,a,False
