subject,TrialNumber,gestures,target,corrAns,condition,gestureSet,ran,order,RT,answer,correct
EB12AY1,1,gestures/baby_POS.mp4,bl_nket,a,S,baby,1.0,0.0,8.102379,a,True
EB12AY1,2,gestures/horse_PL.mp4,k_ck,i,S,horse,1.0,1.0,2.8050554,a,False
EB12AY1,3,gestures/boy_POS.mp4,t-sh_rt,i,S,boy,1.0,2.0,4.084539,e,False
EB12AY1,4,gestures/car_POS.mp4,wind_w,o,S,car,1.0,3.0,5.054311,o,True
EB12AY1,5,gestures/girl_POS.mp4,ha_r,i,S,girl,1.0,4.0,5.7258186,e,False
EB12AY1,6,gestures/frog_POS.mp4,fo_t,o,S,frog,1.0,5.0,9.571877,a,False
EB12AY1,7,gestures/girl_POS.mp4,dr_ss,e,S,girl,1.0,6.0,2.989803,e,True
EB12AY1,8,gestures/baby_PL.mp4,cr_wl,a,S,baby,1.0,7.0,8.224081,u,False
EB12AY1,9,gestures/cat_PL.mp4,sl_ep,e,S,cat,1.0,8.0,3.8356638,i,False
EB12AY1,10,gestures/boy_POS.mp4,bo_k,o,S,boy,1.0,9.0,2.1745558,o,True
EB12AY1,11,gestures/frog_PL.mp4,list_n,e,S,frog,1.0,10.0,4.9813156,e,True
EB12AY1,12,gestures/car_POS.mp4,whe_l,e,S,car,1.0,11.0,5.2822933,o,False
EB12AY1,13,gestures/frog_POS.mp4,tong_e,u,S,frog,1.0,12.0,4.538057,e,False
EB12AY1,14,gestures/baby_PL.mp4,sm_le,i,S,baby,1.0,13.0,3.0799496,i,True
EB12AY1,15,gestures/car_PL.mp4,m_ve,o,S,car,1.0,14.0,4.915147,a,False
EB12AY1,16,gestures/girl_PL.mp4,wh_stle,i,S,girl,1.0,15.0,5.6686783,e,False
EB12AY1,17,gestures/cat_POS.mp4,n_se,o,S,cat,1.0,16.0,2.0354335,a,False
EB12AY1,18,gestures/girl_PL.mp4,h_g,u,S,girl,1.0,17.0,2.3610811,u,True
EB12AY1,19,gestures/dog_POS.mp4,n_ck,e,S,dog,1.0,18.0,4.2024183,a,False
EB12AY1,20,gestures/dog_PL.mp4,b_rk,a,S,dog,1.0,19.0,3.2199018,a,True
EB12AY1,21,gestures/cat_PL.mp4,lo_k,o,S,cat,1.0,20.0,2.1302423,o,True
EB12AY1,22,gestures/frog_PL.mp4,j_mp,u,S,frog,1.0,21.0,1.6895964,u,True
EB12AY1,23,gestures/horse_POS.mp4,mo_th,u,S,horse,1.0,22.0,2.1011965,u,True
EB12AY1,24,gestures/horse_PL.mp4,w_lk,a,S,horse,1.0,23.0,2.1106467,i,False
EB12AY1,25,gestures/cat_POS.mp4,ta_l,i,S,cat,1.0,24.0,2.0485592,i,True
EB12AY1,26,gestures/dog_PL.mp4,pl_y,a,S,dog,1.0,25.0,2.6540625,e,False
EB12AY1,27,gestures/boy_PL.mp4,po_nt,i,S,boy,1.0,26.0,3.4721565,o,False
EB12AY1,28,gestures/dog_POS.mp4,to_th,o,S,dog,1.0,27.0,2.5067465,o,True
EB12AY1,29,gestures/boy_PL.mp4,w_ve,a,S,boy,1.0,28.0,1.6943371,e,False
EB12AY1,30,gestures/horse_POS.mp4,h_ad,e,S,horse,1.0,29.0,1.3490306,a,False
EB12AY1,31,gestures/car_PL.mp4,cr_sh,a,S,car,1.0,30.0,4.0558963,a,True
EB12AY1,32,gestures/baby_POS.mp4,t_ddy,e,S,baby,1.0,31.0,1.6495671,a,False
EB12AY1,33,gestures/boy_S.mp4,t-sh_rt,i,G,boy,1.0,32.0,3.0567706,a,False
EB12AY1,34,gestures/cat_S.mp4,n_se,o,G,cat,1.0,33.0,2.0140715,o,True
EB12AY1,35,gestures/boy_S.mp4,po_nt,i,G,boy,1.0,34.0,1.7739295,o,False
EB12AY1,36,gestures/frog_S.mp4,j_mp,u,G,frog,1.0,35.0,2.0312963,u,True
EB12AY1,37,gestures/car_S.mp4,m_ve,o,G,car,1.0,36.0,3.1725104,u,False
EB12AY1,38,gestures/baby_S.mp4,bl_nket,a,G,baby,1.0,37.0,4.588847,e,False
EB12AY1,39,gestures/cat_S.mp4,sl_ep,e,G,cat,1.0,38.0,2.2464643,i,False
EB12AY1,40,gestures/frog_S.mp4,list_n,e,G,frog,1.0,39.0,3.6993208,e,True
EB12AY1,41,gestures/baby_S.mp4,t_ddy,e,G,baby,1.0,40.0,4.7592926,e,True
EB12AY1,42,gestures/cat_S.mp4,lo_k,o,G,cat,1.0,41.0,1.5170926,o,True
EB12AY1,43,gestures/dog_S.mp4,to_th,o,G,dog,1.0,42.0,1.8225509,o,True
EB12AY1,44,gestures/horse_S.mp4,mo_th,u,G,horse,1.0,43.0,1.773878,o,False
EB12AY1,45,gestures/car_S.mp4,whe_l,e,G,car,1.0,44.0,2.2318604,e,True
EB12AY1,46,gestures/girl_S.mp4,ha_r,i,G,girl,1.0,45.0,2.1002624,i,True
EB12AY1,47,gestures/dog_S.mp4,n_ck,e,G,dog,1.0,46.0,5.715486,a,False
EB12AY1,48,gestures/cat_S.mp4,ta_l,i,G,cat,1.0,47.0,2.739741,i,True
EB12AY1,49,gestures/girl_S.mp4,wh_stle,i,G,girl,1.0,48.0,5.711815,e,False
EB12AY1,50,gestures/car_S.mp4,wind_w,o,G,car,1.0,49.0,1.9444783,o,True
EB12AY1,51,gestures/dog_S.mp4,b_rk,a,G,dog,1.0,50.0,2.9284024,a,True
EB12AY1,52,gestures/horse_S.mp4,w_lk,a,G,horse,1.0,51.0,4.3028855,i,False
EB12AY1,53,gestures/horse_S.mp4,k_ck,i,G,horse,1.0,52.0,3.5222316,i,True
EB12AY1,54,gestures/dog_S.mp4,pl_y,a,G,dog,1.0,53.0,1.6472721,a,True
EB12AY1,55,gestures/baby_S.mp4,sm_le,i,G,baby,1.0,54.0,1.4371073,i,True
EB12AY1,56,gestures/frog_S.mp4,fo_t,o,G,frog,1.0,55.0,1.6643293,o,True
EB12AY1,57,gestures/frog_S.mp4,tong_e,u,G,frog,1.0,56.0,2.901328,a,False
EB12AY1,58,gestures/horse_S.mp4,h_ad,e,G,horse,1.0,57.0,1.769216,a,False
EB12AY1,59,gestures/boy_S.mp4,w_ve,a,G,boy,1.0,58.0,2.5980299,i,False
EB12AY1,60,gestures/car_S.mp4,cr_sh,a,G,car,1.0,59.0,2.030652,a,True
EB12AY1,61,gestures/girl_S.mp4,h_g,u,G,girl,1.0,60.0,1.6138165,u,True
EB12AY1,62,gestures/girl_S.mp4,dr_ss,e,G,girl,1.0,61.0,2.1905565,e,True
EB12AY1,63,gestures/baby_S.mp4,cr_wl,a,G,baby,1.0,62.0,2.9104502,a,True
EB12AY1,64,gestures/boy_S.mp4,bo_k,o,G,boy,1.0,63.0,1.9262184,o,True
