subject,TrialNumber,gestures,target,corrAns,condition,gestureSet,ran,order,RT,answer,correct
ED21AD2,1,gestures/baby_S.mp4,t_ddy,e,G,baby,1.0,0.0,2.0166934,e,True
ED21AD2,2,gestures/cat_S.mp4,sl_ep,e,G,cat,1.0,1.0,1.7275203,e,True
ED21AD2,3,gestures/frog_S.mp4,fo_t,o,G,frog,1.0,2.0,1.7227688,o,True
ED21AD2,4,gestures/dog_S.mp4,b_rk,a,G,dog,1.0,3.0,1.9694952,e,False
ED21AD2,5,gestures/cat_S.mp4,n_se,o,G,cat,1.0,4.0,3.4428847,a,False
ED21AD2,6,gestures/frog_S.mp4,list_n,e,G,frog,1.0,5.0,4.944036,o,False
ED21AD2,7,gestures/car_S.mp4,whe_l,e,G,car,1.0,6.0,1.8606913,e,True
ED21AD2,8,gestures/horse_S.mp4,h_ad,e,G,horse,1.0,7.0,1.7916521,e,True
ED21AD2,9,gestures/car_S.mp4,cr_sh,a,G,car,1.0,8.0,2.7680788,a,True
ED21AD2,10,gestures/dog_S.mp4,n_ck,e,G,dog,1.0,9.0,2.8740902,i,False
ED21AD2,11,gestures/girl_S.mp4,wh_stle,i,G,girl,1.0,10.0,3.7660687,e,False
ED21AD2,12,gestures/car_S.mp4,m_ve,o,G,car,1.0,11.0,3.3904781,o,True
ED21AD2,13,gestures/baby_S.mp4,cr_wl,a,G,baby,1.0,12.0,1.8733772,a,True
ED21AD2,14,gestures/girl_S.mp4,h_g,u,G,girl,1.0,13.0,1.7716335,i,False
ED21AD2,15,gestures/car_S.mp4,wind_w,o,G,car,1.0,14.0,6.396072,i,False
ED21AD2,16,gestures/cat_S.mp4,lo_k,o,G,cat,1.0,15.0,2.1689498,o,True
ED21AD2,17,gestures/frog_S.mp4,tong_e,u,G,frog,1.0,16.0,3.029109,a,False
ED21AD2,18,gestures/boy_S.mp4,po_nt,i,G,boy,1.0,17.0,4.1337476,i,True
ED21AD2,19,gestures/horse_S.mp4,mo_th,u,G,horse,1.0,18.0,6.3940306,o,False
ED21AD2,20,gestures/frog_S.mp4,j_mp,u,G,frog,1.0,19.0,1.8424772,u,True
ED21AD2,21,gestures/girl_S.mp4,dr_ss,e,G,girl,1.0,20.0,2.0142698,e,True
ED21AD2,22,gestures/boy_S.mp4,w_ve,a,G,boy,1.0,21.0,2.7721858,a,True
ED21AD2,23,gestures/boy_S.mp4,bo_k,o,G,boy,1.0,22.0,1.6263838,o,True
ED21AD2,24,gestures/dog_S.mp4,to_th,o,G,dog,1.0,23.0,1.9699098,o,True
ED21AD2,25,gestures/horse_S.mp4,k_ck,i,G,horse,1.0,24.0,1.8031359,i,True
ED21AD2,26,gestures/dog_S.mp4,pl_y,a,G,dog,1.0,25.0,1.7854433,a,True
ED21AD2,27,gestures/horse_S.mp4,w_lk,a,G,horse,1.0,26.0,1.8153613,i,False
ED21AD2,28,gestures/baby_S.mp4,sm_le,i,G,baby,1.0,27.0,2.0808957,i,True
ED21AD2,29,gestures/girl_S.mp4,ha_r,i,G,girl,1.0,28.0,1.6368651,e,False
ED21AD2,30,gestures/baby_S.mp4,bl_nket,a,G,baby,1.0,29.0,1.6982143,i,False
ED21AD2,31,gestures/boy_S.mp4,t-sh_rt,i,G,boy,1.0,30.0,2.2295024,i,True
ED21AD2,32,gestures/cat_S.mp4,ta_l,i,G,cat,1.0,31.0,1.5516273,e,False
ED21AD2,33,gestures/dog_POS.mp4,to_th,o,S,dog,1.0,32.0,1.5706733,o,True
ED21AD2,34,gestures/frog_POS.mp4,tong_e,u,S,frog,1.0,33.0,2.2282786,i,False
ED21AD2,35,gestures/horse_PL.mp4,k_ck,i,S,horse,1.0,34.0,1.3099582,i,True
ED21AD2,36,gestures/car_PL.mp4,cr_sh,a,S,car,1.0,35.0,3.5459986,a,True
ED21AD2,37,gestures/boy_PL.mp4,po_nt,i,S,boy,1.0,36.0,1.4746137,o,False
ED21AD2,38,gestures/frog_POS.mp4,fo_t,o,S,frog,1.0,37.0,1.1597677,o,True
ED21AD2,39,gestures/car_POS.mp4,wind_w,o,S,car,1.0,38.0,5.7344246,i,False
ED21AD2,40,gestures/boy_POS.mp4,t-sh_rt,i,S,boy,1.0,39.0,1.3442439,i,True
ED21AD2,41,gestures/girl_PL.mp4,wh_stle,i,S,girl,1.0,40.0,1.5407053,i,True
ED21AD2,42,gestures/frog_PL.mp4,j_mp,u,S,frog,1.0,41.0,1.5961547,u,True
ED21AD2,43,gestures/cat_PL.mp4,sl_ep,e,S,cat,1.0,42.0,2.0332186,e,True
ED21AD2,44,gestures/car_POS.mp4,whe_l,e,S,car,1.0,43.0,1.6772141,e,True
ED21AD2,45,gestures/horse_POS.mp4,mo_th,u,S,horse,1.0,44.0,1.5340682,u,True
ED21AD2,46,gestures/baby_PL.mp4,sm_le,i,S,baby,1.0,45.0,2.0260916,i,True
ED21AD2,47,gestures/cat_PL.mp4,lo_k,o,S,cat,1.0,46.0,1.3119807,o,True
ED21AD2,48,gestures/baby_POS.mp4,bl_nket,a,S,baby,1.0,47.0,2.9364102,e,False
ED21AD2,49,gestures/cat_POS.mp4,n_se,o,S,cat,1.0,48.0,2.57261,o,True
ED21AD2,50,gestures/dog_PL.mp4,b_rk,a,S,dog,1.0,49.0,2.1721387,e,False
ED21AD2,51,gestures/cat_POS.mp4,ta_l,i,S,cat,1.0,50.0,1.5965178,i,True
ED21AD2,52,gestures/girl_POS.mp4,ha_r,i,S,girl,1.0,51.0,1.8495358,e,False
ED21AD2,53,gestures/boy_POS.mp4,bo_k,o,S,boy,1.0,52.0,1.2156852,o,True
ED21AD2,54,gestures/girl_POS.mp4,dr_ss,e,S,girl,1.0,53.0,2.5687683,e,True
ED21AD2,55,gestures/car_PL.mp4,m_ve,o,S,car,1.0,54.0,1.8893814,o,True
ED21AD2,56,gestures/baby_POS.mp4,t_ddy,e,S,baby,1.0,55.0,1.8823385,e,True
ED21AD2,57,gestures/horse_POS.mp4,h_ad,e,S,horse,1.0,56.0,2.3985088,e,True
ED21AD2,58,gestures/girl_PL.mp4,h_g,u,S,girl,1.0,57.0,1.7522869,u,True
ED21AD2,59,gestures/frog_PL.mp4,list_n,e,S,frog,1.0,58.0,3.1147833,i,False
ED21AD2,60,gestures/dog_POS.mp4,n_ck,e,S,dog,1.0,59.0,1.9240658,i,False
ED21AD2,61,gestures/boy_PL.mp4,w_ve,a,S,boy,1.0,60.0,2.773687,u,False
ED21AD2,62,gestures/dog_PL.mp4,pl_y,a,S,dog,1.0,61.0,1.7456276,a,True
ED21AD2,63,gestures/horse_PL.mp4,w_lk,a,S,horse,1.0,62.0,1.6547729,a,True
ED21AD2,64,gestures/baby_PL.mp4,cr_wl,a,S,baby,1.0,63.0,2.2204528,u,False
