subject,session,TrialNumber,gestures,target,corrAns,condition,gestureSet,ran,order,RT,answer,correct
AN05CA,1,1,gestures/cat_POS.mp4,n_se,o,S,cat,1,0,1.8621849,o,TRUE
AN05CA,1,2,gestures/girl_POS.mp4,dr_ss,e,S,girl,1,1,2.0097678,e,TRUE
AN05CA,1,3,gestures/frog_POS.mp4,tong_e,u,S,frog,1,2,2.252661,e,FALSE
AN05CA,1,4,gestures/frog_POS.mp4,fo_t,o,S,frog,1,3,1.6558136,o,TRUE
AN05CA,1,5,gestures/frog_PL.mp4,list_n,e,S,frog,1,4,1.9110137,e,TRUE
AN05CA,1,6,gestures/dog_POS.mp4,to_th,o,S,dog,1,5,3.6944518,u,FALSE
AN05CA,1,7,gestures/horse_POS.mp4,mo_th,u,S,horse,1,6,1.732753,u,TRUE
AN05CA,1,8,gestures/boy_PL.mp4,po_nt,i,S,boy,1,7,1.8891923,u,FALSE
AN05CA,1,9,gestures/girl_POS.mp4,ha_r,i,S,girl,1,8,3.0084145,e,FALSE
AN05CA,1,10,gestures/boy_POS.mp4,bo_k,o,S,boy,1,9,1.5768926,o,TRUE
AN05CA,1,11,gestures/girl_PL.mp4,h_g,u,S,girl,1,10,2.732338,o,FALSE
AN05CA,1,12,gestures/cat_PL.mp4,lo_k,o,S,cat,1,11,1.3419018,o,TRUE
AN05CA,1,13,gestures/car_PL.mp4,m_ve,o,S,car,1,12,2.1488957,o,TRUE
AN05CA,1,14,gestures/frog_PL.mp4,j_mp,u,S,frog,1,13,1.5846844,u,TRUE
AN05CA,1,15,gestures/car_POS.mp4,wind_w,o,S,car,1,14,1.6986533,o,TRUE
AN05CA,1,16,gestures/cat_POS.mp4,ta_l,i,S,cat,1,15,1.5239829,i,TRUE
AN05CA,1,17,gestures/horse_POS.mp4,h_ad,e,S,horse,1,16,2.3247986,e,TRUE
AN05CA,1,18,gestures/boy_POS.mp4,t-sh_rt,i,S,boy,1,17,1.7567334,i,TRUE
AN05CA,1,19,gestures/girl_PL.mp4,wh_stle,i,S,girl,1,18,2.4848006,i,TRUE
AN05CA,1,20,gestures/dog_PL.mp4,pl_y,a,S,dog,1,19,1.3906697,a,TRUE
AN05CA,1,21,gestures/baby_PL.mp4,sm_le,i,S,baby,1,20,1.7131108,i,TRUE
AN05CA,1,22,gestures/boy_PL.mp4,w_ve,a,S,boy,1,21,1.3374469,a,TRUE
AN05CA,1,23,gestures/baby_PL.mp4,cr_wl,a,S,baby,1,22,1.4845643,o,FALSE
AN05CA,1,24,gestures/car_PL.mp4,cr_sh,a,S,car,1,23,1.2740762,a,TRUE
AN05CA,1,25,gestures/baby_POS.mp4,t_ddy,e,S,baby,1,24,1.8348762,e,TRUE
AN05CA,1,26,gestures/cat_PL.mp4,sl_ep,e,S,cat,1,25,1.5460194,e,TRUE
AN05CA,1,27,gestures/dog_POS.mp4,n_ck,e,S,dog,1,26,1.3745518,e,TRUE
AN05CA,1,28,gestures/dog_PL.mp4,b_rk,a,S,dog,1,27,2.5384607,o,FALSE
AN05CA,1,29,gestures/car_POS.mp4,whe_l,e,S,car,1,28,4.0859375,e,TRUE
AN05CA,1,30,gestures/horse_PL.mp4,w_lk,a,S,horse,1,29,1.3566629,a,TRUE
AN05CA,1,31,gestures/baby_POS.mp4,bl_nket,a,S,baby,1,30,1.4212146,a,TRUE
AN05CA,1,32,gestures/horse_PL.mp4,k_ck,i,S,horse,1,31,1.7457265,i,TRUE
AN05CA,1,33,gestures/car_S.mp4,m_ve,o,G,car,1,32,1.2114135,o,TRUE
AN05CA,1,34,gestures/horse_S.mp4,k_ck,i,G,horse,1,33,1.3421944,i,TRUE
AN05CA,1,35,gestures/girl_S.mp4,wh_stle,i,G,girl,1,34,2.956468,i,TRUE
AN05CA,1,36,gestures/girl_S.mp4,ha_r,i,G,girl,1,35,1.8687145,e,FALSE
AN05CA,1,37,gestures/car_S.mp4,cr_sh,a,G,car,1,36,1.2812287,a,TRUE
AN05CA,1,38,gestures/frog_S.mp4,j_mp,u,G,frog,1,37,1.6669765,u,TRUE
AN05CA,1,39,gestures/baby_S.mp4,t_ddy,e,G,baby,1,38,1.5504402,e,TRUE
AN05CA,1,40,gestures/cat_S.mp4,n_se,o,G,cat,1,39,1.7535733,o,TRUE
AN05CA,1,41,gestures/cat_S.mp4,sl_ep,e,G,cat,1,40,1.3548956,e,TRUE
AN05CA,1,42,gestures/frog_S.mp4,list_n,e,G,frog,1,41,1.6088331,e,TRUE
AN05CA,1,43,gestures/cat_S.mp4,lo_k,o,G,cat,1,42,1.3300774,o,TRUE
AN05CA,1,44,gestures/baby_S.mp4,cr_wl,a,G,baby,1,43,1.325852,a,TRUE
AN05CA,1,45,gestures/dog_S.mp4,b_rk,a,G,dog,1,44,1.7787406,u,FALSE
AN05CA,1,46,gestures/baby_S.mp4,bl_nket,a,G,baby,1,45,1.4408324,a,TRUE
AN05CA,1,47,gestures/dog_S.mp4,n_ck,e,G,dog,1,46,1.5789707,e,TRUE
AN05CA,1,48,gestures/boy_S.mp4,po_nt,i,G,boy,1,47,1.3958989,i,TRUE
AN05CA,1,49,gestures/girl_S.mp4,dr_ss,e,G,girl,1,48,1.4992036,e,TRUE
AN05CA,1,50,gestures/car_S.mp4,wind_w,o,G,car,1,49,1.9113954,o,TRUE
AN05CA,1,51,gestures/frog_S.mp4,tong_e,u,G,frog,1,50,3.6557708,u,TRUE
AN05CA,1,52,gestures/cat_S.mp4,ta_l,i,G,cat,1,51,1.3720559,i,TRUE
AN05CA,1,53,gestures/boy_S.mp4,w_ve,a,G,boy,1,52,1.4300079,a,TRUE
AN05CA,1,54,gestures/boy_S.mp4,bo_k,o,G,boy,1,53,1.4237758,o,TRUE
AN05CA,1,55,gestures/dog_S.mp4,to_th,o,G,dog,1,54,1.6076708,o,TRUE
AN05CA,1,56,gestures/girl_S.mp4,h_g,u,G,girl,1,55,2.6989887,u,TRUE
AN05CA,1,57,gestures/frog_S.mp4,fo_t,o,G,frog,1,56,1.1762426,o,TRUE
AN05CA,1,58,gestures/baby_S.mp4,sm_le,i,G,baby,1,57,1.7394727,i,TRUE
AN05CA,1,59,gestures/dog_S.mp4,pl_y,a,G,dog,1,58,1.2090489,a,TRUE
AN05CA,1,60,gestures/horse_S.mp4,w_lk,a,G,horse,1,59,1.246577,a,TRUE
AN05CA,1,61,gestures/boy_S.mp4,t-sh_rt,i,G,boy,1,60,1.502729,i,TRUE
AN05CA,1,62,gestures/horse_S.mp4,mo_th,u,G,horse,1,61,1.6945466,o,FALSE
AN05CA,1,63,gestures/car_S.mp4,whe_l,e,G,car,1,62,1.8183491,e,TRUE
AN05CA,1,64,gestures/horse_S.mp4,h_ad,e,G,horse,1,63,1.7755225,e,TRUE
AN05CA,2,1,gestures/horse_S.mp4,h_ad,e,G,horse,1,0,1.9237143,e,TRUE
AN05CA,2,2,gestures/car_S.mp4,m_ve,o,G,car,1,1,1.4607458,o,TRUE
AN05CA,2,3,gestures/baby_S.mp4,t_ddy,e,G,baby,1,2,1.4240531,e,TRUE
AN05CA,2,4,gestures/cat_S.mp4,n_se,o,G,cat,1,3,1.500472,o,TRUE
AN05CA,2,5,gestures/frog_S.mp4,j_mp,u,G,frog,1,4,1.6676143,u,TRUE
AN05CA,2,6,gestures/horse_S.mp4,k_ck,i,G,horse,1,5,1.3561267,i,TRUE
AN05CA,2,7,gestures/boy_S.mp4,w_ve,a,G,boy,1,6,2.1262596,a,TRUE
AN05CA,2,8,gestures/cat_S.mp4,ta_l,i,G,cat,1,7,1.4159598,i,TRUE
AN05CA,2,9,gestures/horse_S.mp4,w_lk,a,G,horse,1,8,1.1767383,a,TRUE
AN05CA,2,10,gestures/car_S.mp4,whe_l,e,G,car,1,9,2.5148084,e,TRUE
AN05CA,2,11,gestures/dog_S.mp4,to_th,o,G,dog,1,10,1.3215477,o,TRUE
AN05CA,2,12,gestures/dog_S.mp4,n_ck,e,G,dog,1,11,1.4385705,e,TRUE
AN05CA,2,13,gestures/baby_S.mp4,cr_wl,a,G,baby,1,12,1.3722152,a,TRUE
AN05CA,2,14,gestures/girl_S.mp4,ha_r,i,G,girl,1,13,3.288903,a,FALSE
AN05CA,2,15,gestures/car_S.mp4,wind_w,o,G,car,1,14,1.5571115,o,TRUE
AN05CA,2,16,gestures/baby_S.mp4,bl_nket,a,G,baby,1,15,1.2885718,a,TRUE
AN05CA,2,17,gestures/boy_S.mp4,po_nt,i,G,boy,1,16,1.1166555,i,TRUE
AN05CA,2,18,gestures/horse_S.mp4,mo_th,u,G,horse,1,17,3.5267835,u,TRUE
AN05CA,2,19,gestures/boy_S.mp4,bo_k,o,G,boy,1,18,1.6038891,o,TRUE
AN05CA,2,20,gestures/girl_S.mp4,dr_ss,e,G,girl,1,19,1.370316,e,TRUE
AN05CA,2,21,gestures/boy_S.mp4,t-sh_rt,i,G,boy,1,20,1.8339837,i,TRUE
AN05CA,2,22,gestures/car_S.mp4,cr_sh,a,G,car,1,21,1.3139518,a,TRUE
AN05CA,2,23,gestures/girl_S.mp4,wh_stle,i,G,girl,1,22,1.632567,i,TRUE
AN05CA,2,24,gestures/baby_S.mp4,sm_le,i,G,baby,1,23,1.3190038,i,TRUE
AN05CA,2,25,gestures/dog_S.mp4,pl_y,a,G,dog,1,24,1.321996,a,TRUE
AN05CA,2,26,gestures/frog_S.mp4,list_n,e,G,frog,1,25,1.2408744,i,FALSE
AN05CA,2,27,gestures/frog_S.mp4,tong_e,u,G,frog,1,26,2.4657028,e,FALSE
AN05CA,2,28,gestures/cat_S.mp4,sl_ep,e,G,cat,1,27,1.6328198,e,TRUE
AN05CA,2,29,gestures/cat_S.mp4,lo_k,o,G,cat,1,28,1.4290819,o,TRUE
AN05CA,2,30,gestures/frog_S.mp4,fo_t,o,G,frog,1,29,1.1742471,o,TRUE
AN05CA,2,31,gestures/dog_S.mp4,b_rk,a,G,dog,1,30,1.6531254,a,TRUE
AN05CA,2,32,gestures/girl_S.mp4,h_g,u,G,girl,1,31,1.6933877,u,TRUE
AN05CA,2,33,gestures/horse_POS.mp4,h_ad,e,S,horse,1,32,1.3573724,e,TRUE
AN05CA,2,34,gestures/dog_PL.mp4,pl_y,a,S,dog,1,33,1.0856122,a,TRUE
AN05CA,2,35,gestures/horse_POS.mp4,mo_th,u,S,horse,1,34,1.95626,o,FALSE
AN05CA,2,36,gestures/horse_PL.mp4,w_lk,a,S,horse,1,35,1.2436539,a,TRUE
AN05CA,2,37,gestures/boy_POS.mp4,t-sh_rt,i,S,boy,1,36,1.1817226,i,TRUE
AN05CA,2,38,gestures/dog_POS.mp4,n_ck,e,S,dog,1,37,1.2720253,e,TRUE
AN05CA,2,39,gestures/horse_PL.mp4,k_ck,i,S,horse,1,38,1.1260723,i,TRUE
AN05CA,2,40,gestures/boy_POS.mp4,bo_k,o,S,boy,1,39,1.5644097,o,TRUE
AN05CA,2,41,gestures/car_PL.mp4,cr_sh,a,S,car,1,40,1.1478772,a,TRUE
AN05CA,2,42,gestures/boy_PL.mp4,po_nt,i,S,boy,1,41,1.1157776,i,TRUE
AN05CA,2,43,gestures/baby_POS.mp4,bl_nket,a,S,baby,1,42,1.4163541,a,TRUE
AN05CA,2,44,gestures/frog_PL.mp4,list_n,e,S,frog,1,43,3.4682777,i,FALSE
AN05CA,2,45,gestures/dog_POS.mp4,to_th,o,S,dog,1,44,1.1086314,o,TRUE
AN05CA,2,46,gestures/boy_PL.mp4,w_ve,a,S,boy,1,45,1.199011,a,TRUE
AN05CA,2,47,gestures/cat_PL.mp4,lo_k,o,S,cat,1,46,1.2153655,o,TRUE
AN05CA,2,48,gestures/girl_PL.mp4,h_g,u,S,girl,1,47,1.5854498,u,TRUE
AN05CA,2,49,gestures/girl_PL.mp4,wh_stle,i,S,girl,1,48,1.4805937,i,TRUE
AN05CA,2,50,gestures/baby_PL.mp4,sm_le,i,S,baby,1,49,1.2455761,i,TRUE
AN05CA,2,51,gestures/cat_POS.mp4,n_se,o,S,cat,1,50,1.2602806,o,TRUE
AN05CA,2,52,gestures/girl_POS.mp4,ha_r,i,S,girl,1,51,2.5850718,e,FALSE
AN05CA,2,53,gestures/frog_PL.mp4,j_mp,u,S,frog,1,52,1.9085621,u,TRUE
AN05CA,2,54,gestures/baby_POS.mp4,t_ddy,e,S,baby,1,53,1.4053736,e,TRUE
AN05CA,2,55,gestures/cat_PL.mp4,sl_ep,e,S,cat,1,54,1.7889429,e,TRUE
AN05CA,2,56,gestures/frog_POS.mp4,fo_t,o,S,frog,1,55,1.43529,o,TRUE
AN05CA,2,57,gestures/car_POS.mp4,whe_l,e,S,car,1,56,3.2317226,e,TRUE
AN05CA,2,58,gestures/car_POS.mp4,wind_w,o,S,car,1,57,1.7031196,o,TRUE
AN05CA,2,59,gestures/frog_POS.mp4,tong_e,u,S,frog,1,58,2.1135128,u,TRUE
AN05CA,2,60,gestures/girl_POS.mp4,dr_ss,e,S,girl,1,59,1.3057373,e,TRUE
AN05CA,2,61,gestures/dog_PL.mp4,b_rk,a,S,dog,1,60,1.5077419,a,TRUE
AN05CA,2,62,gestures/baby_PL.mp4,cr_wl,a,S,baby,1,61,1.355614,a,TRUE
AN05CA,2,63,gestures/cat_POS.mp4,ta_l,i,S,cat,1,62,1.3472677,i,TRUE
AN05CA,2,64,gestures/car_PL.mp4,m_ve,o,S,car,1,63,2.7600574,o,TRUE
AN13MA,1,1,gestures/girl_PL.mp4,wh_stle,i,S,girl,1,0,3.5783238,a,FALSE
AN13MA,1,2,gestures/baby_POS.mp4,t_ddy,e,S,baby,1,1,1.611417,a,FALSE
AN13MA,1,3,gestures/car_POS.mp4,whe_l,e,S,car,1,2,2.1656601,e,TRUE
AN13MA,1,4,gestures/horse_POS.mp4,h_ad,e,S,horse,1,3,3.7603488,e,TRUE
AN13MA,1,5,gestures/girl_POS.mp4,dr_ss,e,S,girl,1,4,1.9404937,e,TRUE
AN13MA,1,6,gestures/cat_POS.mp4,n_se,o,S,cat,1,5,1.7351294,o,TRUE
AN13MA,1,7,gestures/frog_POS.mp4,tong_e,u,S,frog,1,6,4.7743526,i,FALSE
AN13MA,1,8,gestures/girl_POS.mp4,ha_r,i,S,girl,1,7,2.2556033,i,TRUE
AN13MA,1,9,gestures/baby_PL.mp4,sm_le,i,S,baby,1,8,1.5743864,i,TRUE
AN13MA,1,10,gestures/dog_POS.mp4,to_th,o,S,dog,1,9,1.5892409,o,TRUE
AN13MA,1,11,gestures/horse_PL.mp4,k_ck,i,S,horse,1,10,1.6690533,i,TRUE
AN13MA,1,12,gestures/boy_POS.mp4,bo_k,o,S,boy,1,11,1.3445865,o,TRUE
AN13MA,1,13,gestures/baby_POS.mp4,bl_nket,a,S,baby,1,12,1.8457482,a,TRUE
AN13MA,1,14,gestures/dog_PL.mp4,b_rk,a,S,dog,1,13,2.427821,a,TRUE
AN13MA,1,15,gestures/car_PL.mp4,cr_sh,a,S,car,1,14,1.4744037,a,TRUE
AN13MA,1,16,gestures/horse_PL.mp4,w_lk,a,S,horse,1,15,1.7638346,a,TRUE
AN13MA,1,17,gestures/frog_POS.mp4,fo_t,o,S,frog,1,16,1.5840361,o,TRUE
AN13MA,1,18,gestures/boy_PL.mp4,po_nt,i,S,boy,1,17,2.1201398,i,TRUE
AN13MA,1,19,gestures/cat_PL.mp4,sl_ep,e,S,cat,1,18,1.7530273,e,TRUE
AN13MA,1,20,gestures/cat_PL.mp4,lo_k,o,S,cat,1,19,1.3832806,o,TRUE
AN13MA,1,21,gestures/frog_PL.mp4,list_n,e,S,frog,1,20,2.7018845,e,TRUE
AN13MA,1,22,gestures/dog_POS.mp4,n_ck,e,S,dog,1,21,4.976381,i,FALSE
AN13MA,1,23,gestures/horse_POS.mp4,mo_th,u,S,horse,1,22,2.404712,u,TRUE
AN13MA,1,24,gestures/car_PL.mp4,m_ve,o,S,car,1,23,1.401445,o,TRUE
AN13MA,1,25,gestures/baby_PL.mp4,cr_wl,a,S,baby,1,24,1.5701941,a,TRUE
AN13MA,1,26,gestures/girl_PL.mp4,h_g,u,S,girl,1,25,1.5038415,u,TRUE
AN13MA,1,27,gestures/dog_PL.mp4,pl_y,a,S,dog,1,26,1.3410928,a,TRUE
AN13MA,1,28,gestures/car_POS.mp4,wind_w,o,S,car,1,27,2.4795537,o,TRUE
AN13MA,1,29,gestures/boy_POS.mp4,t-sh_rt,i,S,boy,1,28,2.5426784,i,TRUE
AN13MA,1,30,gestures/boy_PL.mp4,w_ve,a,S,boy,1,29,2.0019271,a,TRUE
AN13MA,1,31,gestures/cat_POS.mp4,ta_l,i,S,cat,1,30,2.6777675,i,TRUE
AN13MA,1,32,gestures/frog_PL.mp4,j_mp,u,S,frog,1,31,1.2062473,u,TRUE
AN13MA,1,33,gestures/dog_S.mp4,pl_y,a,G,dog,1,32,1.1099912,a,TRUE
AN13MA,1,34,gestures/baby_S.mp4,cr_wl,a,G,baby,1,33,1.1515455000000001,a,TRUE
AN13MA,1,35,gestures/cat_S.mp4,lo_k,o,G,cat,1,34,1.3131444,o,TRUE
AN13MA,1,36,gestures/baby_S.mp4,sm_le,i,G,baby,1,35,1.2059604,i,TRUE
AN13MA,1,37,gestures/horse_S.mp4,mo_th,u,G,horse,1,36,1.6542075,u,TRUE
AN13MA,1,38,gestures/horse_S.mp4,w_lk,a,G,horse,1,37,2.2275364,a,TRUE
AN13MA,1,39,gestures/cat_S.mp4,sl_ep,e,G,cat,1,38,1.1703726,e,TRUE
AN13MA,1,40,gestures/baby_S.mp4,t_ddy,e,G,baby,1,39,2.3620322,e,TRUE
AN13MA,1,41,gestures/dog_S.mp4,n_ck,e,G,dog,1,40,1.6444088,e,TRUE
AN13MA,1,42,gestures/car_S.mp4,cr_sh,a,G,car,1,41,1.9020338,a,TRUE
AN13MA,1,43,gestures/horse_S.mp4,h_ad,e,G,horse,1,42,2.6465094,e,TRUE
AN13MA,1,44,gestures/baby_S.mp4,bl_nket,a,G,baby,1,43,1.2519081,a,TRUE
AN13MA,1,45,gestures/boy_S.mp4,w_ve,a,G,boy,1,44,2.457576,a,TRUE
AN13MA,1,46,gestures/dog_S.mp4,b_rk,a,G,dog,1,45,2.6248422,e,FALSE
AN13MA,1,47,gestures/girl_S.mp4,ha_r,i,G,girl,1,46,1.8887427,i,TRUE
AN13MA,1,48,gestures/frog_S.mp4,j_mp,u,G,frog,1,47,1.2969639,u,TRUE
AN13MA,1,49,gestures/frog_S.mp4,list_n,e,G,frog,1,48,1.9024167,e,TRUE
AN13MA,1,50,gestures/car_S.mp4,wind_w,o,G,car,1,49,1.700928,o,TRUE
AN13MA,1,51,gestures/car_S.mp4,whe_l,e,G,car,1,50,1.5725441,e,TRUE
AN13MA,1,52,gestures/girl_S.mp4,wh_stle,i,G,girl,1,51,2.905628,i,TRUE
AN13MA,1,53,gestures/boy_S.mp4,po_nt,i,G,boy,1,52,1.353201,i,TRUE
AN13MA,1,54,gestures/frog_S.mp4,tong_e,u,G,frog,1,53,4.1438293,i,FALSE
AN13MA,1,55,gestures/boy_S.mp4,t-sh_rt,i,G,boy,1,54,1.4111153,i,TRUE
AN13MA,1,56,gestures/boy_S.mp4,bo_k,o,G,boy,1,55,1.4389473,o,TRUE
AN13MA,1,57,gestures/horse_S.mp4,k_ck,i,G,horse,1,56,1.2964479,i,TRUE
AN13MA,1,58,gestures/girl_S.mp4,h_g,u,G,girl,1,57,1.5255849,u,TRUE
AN13MA,1,59,gestures/girl_S.mp4,dr_ss,e,G,girl,1,58,1.3610247,e,TRUE
AN13MA,1,60,gestures/cat_S.mp4,n_se,o,G,cat,1,59,1.3284866,o,TRUE
AN13MA,1,61,gestures/frog_S.mp4,fo_t,o,G,frog,1,60,1.2508907,o,TRUE
AN13MA,1,62,gestures/car_S.mp4,m_ve,o,G,car,1,61,1.1163607,o,TRUE
AN13MA,1,63,gestures/dog_S.mp4,to_th,o,G,dog,1,62,1.3571723,o,TRUE
AN13MA,1,64,gestures/cat_S.mp4,ta_l,i,G,cat,1,63,1.6077818,i,TRUE
AN13MA,2,1,gestures/baby_S.mp4,sm_le,i,G,baby,1,0,1.5948876,i,TRUE
AN13MA,2,2,gestures/girl_S.mp4,ha_r,i,G,girl,1,1,1.7289712,i,TRUE
AN13MA,2,3,gestures/dog_S.mp4,pl_y,a,G,dog,1,2,1.486713,a,TRUE
AN13MA,2,4,gestures/baby_S.mp4,cr_wl,a,G,baby,1,3,1.7120881,a,TRUE
AN13MA,2,5,gestures/dog_S.mp4,b_rk,a,G,dog,1,4,3.0315936,a,TRUE
AN13MA,2,6,gestures/boy_S.mp4,t-sh_rt,i,G,boy,1,5,1.9058584,i,TRUE
AN13MA,2,7,gestures/girl_S.mp4,h_g,u,G,girl,1,6,1.4828149,u,TRUE
AN13MA,2,8,gestures/car_S.mp4,wind_w,o,G,car,1,7,2.2574658,o,TRUE
AN13MA,2,9,gestures/dog_S.mp4,n_ck,e,G,dog,1,8,1.7065003,a,FALSE
AN13MA,2,10,gestures/boy_S.mp4,po_nt,i,G,boy,1,9,1.4843173,i,TRUE
AN13MA,2,11,gestures/horse_S.mp4,k_ck,i,G,horse,1,10,1.4091985,i,TRUE
AN13MA,2,12,gestures/horse_S.mp4,h_ad,e,G,horse,1,11,4.995819,e,TRUE
AN13MA,2,13,gestures/cat_S.mp4,lo_k,o,G,cat,1,12,1.4356596,o,TRUE
AN13MA,2,14,gestures/baby_S.mp4,t_ddy,e,G,baby,1,13,1.5314548,e,TRUE
AN13MA,2,15,gestures/girl_S.mp4,dr_ss,e,G,girl,1,14,1.4514272,e,TRUE
AN13MA,2,16,gestures/boy_S.mp4,w_ve,a,G,boy,1,15,1.7260584,a,TRUE
AN13MA,2,17,gestures/frog_S.mp4,tong_e,u,G,frog,1,16,2.8241045,u,TRUE
AN13MA,2,18,gestures/cat_S.mp4,sl_ep,e,G,cat,1,17,2.9947805,e,TRUE
AN13MA,2,19,gestures/car_S.mp4,cr_sh,a,G,car,1,18,1.7594395,a,TRUE
AN13MA,2,20,gestures/car_S.mp4,m_ve,o,G,car,1,19,1.6578348,o,TRUE
AN13MA,2,21,gestures/horse_S.mp4,w_lk,a,G,horse,1,20,1.1476885,a,TRUE
AN13MA,2,22,gestures/boy_S.mp4,bo_k,o,G,boy,1,21,1.4245206,o,TRUE
AN13MA,2,23,gestures/frog_S.mp4,j_mp,u,G,frog,1,22,1.4538804,u,TRUE
AN13MA,2,24,gestures/cat_S.mp4,n_se,o,G,cat,1,23,1.2789555,o,TRUE
AN13MA,2,25,gestures/car_S.mp4,whe_l,e,G,car,1,24,1.3967034,e,TRUE
AN13MA,2,26,gestures/baby_S.mp4,bl_nket,a,G,baby,1,25,1.5851707,a,TRUE
AN13MA,2,27,gestures/cat_S.mp4,ta_l,i,G,cat,1,26,1.6290877,i,TRUE
AN13MA,2,28,gestures/dog_S.mp4,to_th,o,G,dog,1,27,1.7375259,o,TRUE
AN13MA,2,29,gestures/frog_S.mp4,fo_t,o,G,frog,1,28,2.1446886,o,TRUE
AN13MA,2,30,gestures/girl_S.mp4,wh_stle,i,G,girl,1,29,2.8953247,a,FALSE
AN13MA,2,31,gestures/horse_S.mp4,mo_th,u,G,horse,1,30,2.6331282,u,TRUE
AN13MA,2,32,gestures/frog_S.mp4,list_n,e,G,frog,1,31,2.1367972,e,TRUE
AN13MA,2,33,gestures/cat_PL.mp4,lo_k,o,S,cat,1,32,1.1971159,o,TRUE
AN13MA,2,34,gestures/boy_POS.mp4,bo_k,o,S,boy,1,33,1.3891355,o,TRUE
AN13MA,2,35,gestures/girl_POS.mp4,dr_ss,e,S,girl,1,34,1.3149905,e,TRUE
AN13MA,2,36,gestures/cat_POS.mp4,ta_l,i,S,cat,1,35,1.8115138,i,TRUE
AN13MA,2,37,gestures/cat_POS.mp4,n_se,o,S,cat,1,36,1.3644437,o,TRUE
AN13MA,2,38,gestures/boy_PL.mp4,po_nt,i,S,boy,1,37,1.2681174,i,TRUE
AN13MA,2,39,gestures/horse_PL.mp4,w_lk,a,S,horse,1,38,1.1170809,a,TRUE
AN13MA,2,40,gestures/dog_PL.mp4,pl_y,a,S,dog,1,39,1.0321293,a,TRUE
AN13MA,2,41,gestures/dog_POS.mp4,n_ck,e,S,dog,1,40,1.136118,a,FALSE
AN13MA,2,42,gestures/horse_POS.mp4,mo_th,u,S,horse,1,41,1.4686576,u,TRUE
AN13MA,2,43,gestures/car_PL.mp4,m_ve,o,S,car,1,42,1.3736389,o,TRUE
AN13MA,2,44,gestures/baby_PL.mp4,sm_le,i,S,baby,1,43,1.212462,i,TRUE
AN13MA,2,45,gestures/car_POS.mp4,whe_l,e,S,car,1,44,1.8170854,e,TRUE
AN13MA,2,46,gestures/baby_PL.mp4,cr_wl,a,S,baby,1,45,2.0536094,a,TRUE
AN13MA,2,47,gestures/frog_PL.mp4,j_mp,u,S,frog,1,46,1.1552885,u,TRUE
AN13MA,2,48,gestures/baby_POS.mp4,t_ddy,e,S,baby,1,47,1.2991008,e,TRUE
AN13MA,2,49,gestures/boy_PL.mp4,w_ve,a,S,boy,1,48,1.8128399,a,TRUE
AN13MA,2,50,gestures/cat_PL.mp4,sl_ep,e,S,cat,1,49,1.068024,e,TRUE
AN13MA,2,51,gestures/dog_PL.mp4,b_rk,a,S,dog,1,50,1.979028,a,TRUE
AN13MA,2,52,gestures/baby_POS.mp4,bl_nket,a,S,baby,1,51,1.3191895,a,TRUE
AN13MA,2,53,gestures/girl_PL.mp4,h_g,u,S,girl,1,52,1.1487197,u,TRUE
AN13MA,2,54,gestures/boy_POS.mp4,t-sh_rt,i,S,boy,1,53,1.49836,i,TRUE
AN13MA,2,55,gestures/car_POS.mp4,wind_w,o,S,car,1,54,1.4453506,o,TRUE
AN13MA,2,56,gestures/horse_PL.mp4,k_ck,i,S,horse,1,55,1.4999946,i,TRUE
AN13MA,2,57,gestures/dog_POS.mp4,to_th,o,S,dog,1,56,1.3865287,o,TRUE
AN13MA,2,58,gestures/car_PL.mp4,cr_sh,a,S,car,1,57,1.149502,a,TRUE
AN13MA,2,59,gestures/frog_POS.mp4,fo_t,o,S,frog,1,58,1.4872499,o,TRUE
AN13MA,2,60,gestures/girl_POS.mp4,ha_r,i,S,girl,1,59,1.5746212,i,TRUE
AN13MA,2,61,gestures/frog_PL.mp4,list_n,e,S,frog,1,60,1.7339483,e,TRUE
AN13MA,2,62,gestures/frog_POS.mp4,tong_e,u,S,frog,1,61,2.4675243,u,TRUE
AN13MA,2,63,gestures/girl_PL.mp4,wh_stle,i,S,girl,1,62,3.31073,i,TRUE
AN13MA,2,64,gestures/horse_POS.mp4,h_ad,e,S,horse,1,63,2.6544664,e,TRUE
AN32MA,1,1,gestures/frog_POS.mp4,tong_e,u,S,frog,1,0,3.578794,a,FALSE
AN32MA,1,2,gestures/car_POS.mp4,wind_w,o,S,car,1,1,1.4171175,o,TRUE
AN32MA,1,3,gestures/girl_PL.mp4,wh_stle,i,S,girl,1,2,3.8432994,e,FALSE
AN32MA,1,4,gestures/baby_PL.mp4,sm_le,i,S,baby,1,3,2.0171726,i,TRUE
AN32MA,1,5,gestures/horse_PL.mp4,w_lk,a,S,horse,1,4,2.0851805,o,FALSE
AN32MA,1,6,gestures/cat_POS.mp4,n_se,o,S,cat,1,5,1.4163781,o,TRUE
AN32MA,1,7,gestures/baby_PL.mp4,cr_wl,a,S,baby,1,6,3.1500952,a,TRUE
AN32MA,1,8,gestures/boy_PL.mp4,po_nt,i,S,boy,1,7,1.5837351,i,TRUE
AN32MA,1,9,gestures/baby_POS.mp4,bl_nket,a,S,baby,1,8,1.9217083,e,FALSE
AN32MA,1,10,gestures/girl_POS.mp4,dr_ss,e,S,girl,1,9,1.6999203,e,TRUE
AN32MA,1,11,gestures/car_PL.mp4,m_ve,o,S,car,1,10,1.8382327999999999,o,TRUE
AN32MA,1,12,gestures/boy_PL.mp4,w_ve,a,S,boy,1,11,1.6453843,a,TRUE
AN32MA,1,13,gestures/frog_PL.mp4,j_mp,u,S,frog,1,12,1.2868567,u,TRUE
AN32MA,1,14,gestures/boy_POS.mp4,t-sh_rt,i,S,boy,1,13,1.8518314,i,TRUE
AN32MA,1,15,gestures/cat_PL.mp4,lo_k,o,S,cat,1,14,1.4537262,o,TRUE
AN32MA,1,16,gestures/baby_POS.mp4,t_ddy,e,S,baby,1,15,1.5565569,a,FALSE
AN32MA,1,17,gestures/horse_PL.mp4,k_ck,i,S,horse,1,16,1.4284382,i,TRUE
AN32MA,1,18,gestures/frog_PL.mp4,list_n,e,S,frog,1,17,3.1472602,e,TRUE
AN32MA,1,19,gestures/cat_PL.mp4,sl_ep,e,S,cat,1,18,1.662978,e,TRUE
AN32MA,1,20,gestures/girl_POS.mp4,ha_r,i,S,girl,1,19,3.3493679,e,FALSE
AN32MA,1,21,gestures/dog_PL.mp4,pl_y,a,S,dog,1,20,1.2683555,a,TRUE
AN32MA,1,22,gestures/dog_POS.mp4,to_th,o,S,dog,1,21,2.842167,o,TRUE
AN32MA,1,23,gestures/car_PL.mp4,cr_sh,a,S,car,1,22,2.6360862,a,TRUE
AN32MA,1,24,gestures/car_POS.mp4,whe_l,e,S,car,1,23,1.72255,e,TRUE
AN32MA,1,25,gestures/cat_POS.mp4,ta_l,i,S,cat,1,24,1.9995669,i,TRUE
AN32MA,1,26,gestures/boy_POS.mp4,bo_k,o,S,boy,1,25,1.1858925,o,TRUE
AN32MA,1,27,gestures/dog_PL.mp4,b_rk,a,S,dog,1,26,3.9687302,e,FALSE
AN32MA,1,28,gestures/frog_POS.mp4,fo_t,o,S,frog,1,27,1.9753957,o,TRUE
AN32MA,1,29,gestures/girl_PL.mp4,h_g,u,S,girl,1,28,1.7458827,u,TRUE
AN32MA,1,30,gestures/horse_POS.mp4,mo_th,u,S,horse,1,29,5.4717107,a,FALSE
AN32MA,1,31,gestures/dog_POS.mp4,n_ck,e,S,dog,1,30,2.371174,a,FALSE
AN32MA,1,32,gestures/horse_POS.mp4,h_ad,e,S,horse,1,31,2.6533277,e,TRUE
AN32MA,1,1,gestures/cat_S.mp4,ta_l,i,G,cat,1,0,2.6203823,i,TRUE
AN32MA,1,2,gestures/baby_S.mp4,bl_nket,a,G,baby,1,1,2.4533298,a,TRUE
AN32MA,1,3,gestures/girl_S.mp4,h_g,u,G,girl,1,2,2.2613788,u,TRUE
AN32MA,1,4,gestures/dog_S.mp4,to_th,o,G,dog,1,3,23.039402,a,FALSE
AN32MA,1,5,gestures/cat_S.mp4,sl_ep,e,G,cat,1,4,2.787389,e,TRUE
AN32MA,1,6,gestures/baby_S.mp4,cr_wl,a,G,baby,1,5,1.8682132,a,TRUE
AN32MA,1,7,gestures/boy_S.mp4,po_nt,i,G,boy,1,6,1.8743876,i,TRUE
AN32MA,1,8,gestures/dog_S.mp4,pl_y,a,G,dog,1,7,1.4189641,a,TRUE
AN32MA,1,9,gestures/frog_S.mp4,j_mp,u,G,frog,1,8,1.8322347,u,TRUE
AN32MA,1,10,gestures/car_S.mp4,m_ve,o,G,car,1,9,3.8407915,a,FALSE
AN32MA,1,11,gestures/girl_S.mp4,ha_r,i,G,girl,1,10,2.9060922,a,FALSE
AN32MA,1,12,gestures/boy_S.mp4,bo_k,o,G,boy,1,11,1.5409608,o,TRUE
AN32MA,1,13,gestures/cat_S.mp4,lo_k,o,G,cat,1,12,1.4958562,o,TRUE
AN32MA,1,14,gestures/frog_S.mp4,tong_e,u,G,frog,1,13,2.6627991,a,FALSE
AN32MA,1,15,gestures/girl_S.mp4,dr_ss,e,G,girl,1,14,3.5179343,e,TRUE
AN32MA,1,16,gestures/boy_S.mp4,t-sh_rt,i,G,boy,1,15,2.3716912,i,TRUE
AN32MA,1,17,gestures/boy_S.mp4,w_ve,a,G,boy,1,16,1.9702815,a,TRUE
AN32MA,1,18,gestures/car_S.mp4,cr_sh,a,G,car,1,17,2.2558525,a,TRUE
AN32MA,1,19,gestures/horse_S.mp4,h_ad,e,G,horse,1,18,2.365904,a,FALSE
AN32MA,1,20,gestures/horse_S.mp4,k_ck,i,G,horse,1,19,1.9550223,i,TRUE
AN32MA,1,21,gestures/frog_S.mp4,fo_t,o,G,frog,1,20,7.6919885,o,TRUE
AN32MA,1,22,gestures/dog_S.mp4,b_rk,a,G,dog,1,21,11.035107,i,FALSE
AN32MA,1,23,gestures/baby_S.mp4,sm_le,i,G,baby,1,22,4.2298255,i,TRUE
AN32MA,1,24,gestures/baby_S.mp4,t_ddy,e,G,baby,1,23,1.7605911,a,FALSE
AN32MA,1,25,gestures/horse_S.mp4,mo_th,u,G,horse,1,24,3.3418777,o,FALSE
AN32MA,1,26,gestures/horse_S.mp4,w_lk,a,G,horse,1,25,1.796702,a,TRUE
AN32MA,1,27,gestures/car_S.mp4,whe_l,e,G,car,1,26,1.5972666,a,FALSE
AN32MA,1,28,gestures/cat_S.mp4,n_se,o,G,cat,1,27,2.1612887,o,TRUE
AN32MA,1,29,gestures/girl_S.mp4,wh_stle,i,G,girl,1,28,1.7652682,a,FALSE
AN32MA,1,30,gestures/car_S.mp4,wind_w,o,G,car,1,29,1.7835574,o,TRUE
AN32MA,1,31,gestures/frog_S.mp4,list_n,e,G,frog,1,30,2.5341284,i,FALSE
AN32MA,1,32,gestures/dog_S.mp4,n_ck,e,G,dog,1,31,2.5143642,i,FALSE
AN32MA,2,1,gestures/cat_POS.mp4,ta_l,i,S,cat,1,0,2.346021,i,TRUE
AN32MA,2,2,gestures/cat_POS.mp4,n_se,o,S,cat,1,1,1.7157191,o,TRUE
AN32MA,2,3,gestures/car_PL.mp4,cr_sh,a,S,car,1,2,1.6673281,a,TRUE
AN32MA,2,4,gestures/horse_POS.mp4,h_ad,e,S,horse,1,3,1.9867744,e,TRUE
AN32MA,2,5,gestures/frog_PL.mp4,list_n,e,S,frog,1,4,2.699542,e,TRUE
AN32MA,2,6,gestures/dog_POS.mp4,n_ck,e,S,dog,1,5,3.1503854,e,TRUE
AN32MA,2,7,gestures/frog_POS.mp4,fo_t,o,S,frog,1,6,2.7035546,o,TRUE
AN32MA,2,8,gestures/cat_PL.mp4,sl_ep,e,S,cat,1,7,1.5465512,e,TRUE
AN32MA,2,9,gestures/girl_PL.mp4,wh_stle,i,S,girl,1,8,15.101427,i,TRUE
AN32MA,2,10,gestures/girl_PL.mp4,h_g,u,S,girl,1,9,2.571023,u,TRUE
AN32MA,2,11,gestures/horse_POS.mp4,mo_th,u,S,horse,1,10,2.1339676,a,FALSE
AN32MA,2,12,gestures/horse_PL.mp4,w_lk,a,S,horse,1,11,3.3203304,o,FALSE
AN32MA,2,13,gestures/frog_POS.mp4,tong_e,u,S,frog,1,12,7.4846163,a,FALSE
AN32MA,2,14,gestures/boy_POS.mp4,bo_k,o,S,boy,1,13,1.7454176,o,TRUE
AN32MA,2,15,gestures/boy_PL.mp4,w_ve,a,S,boy,1,14,2.219005,a,TRUE
AN32MA,2,16,gestures/horse_PL.mp4,k_ck,i,S,horse,1,15,1.6440799,i,TRUE
AN32MA,2,17,gestures/car_POS.mp4,wind_w,o,S,car,1,16,1.9273728,o,TRUE
AN32MA,2,18,gestures/cat_PL.mp4,lo_k,o,S,cat,1,17,2.134338,o,TRUE
AN32MA,2,19,gestures/dog_PL.mp4,b_rk,a,S,dog,1,18,6.7152586,a,TRUE
AN32MA,2,20,gestures/baby_POS.mp4,t_ddy,e,S,baby,1,19,3.388277,a,FALSE
AN32MA,2,21,gestures/boy_PL.mp4,po_nt,i,S,boy,1,20,1.437234,i,TRUE
AN32MA,2,22,gestures/car_PL.mp4,m_ve,o,S,car,1,21,1.707213,o,TRUE
AN32MA,2,23,gestures/baby_PL.mp4,cr_wl,a,S,baby,1,22,2.1954896,a,TRUE
AN32MA,2,24,gestures/car_POS.mp4,whe_l,e,S,car,1,23,2.0287828,e,TRUE
AN32MA,2,25,gestures/boy_POS.mp4,t-sh_rt,i,S,boy,1,24,2.6822784,i,TRUE
AN32MA,2,26,gestures/dog_POS.mp4,to_th,o,S,dog,1,25,3.6044734,o,TRUE
AN32MA,2,27,gestures/girl_POS.mp4,ha_r,i,S,girl,1,26,3.6750402,e,FALSE
AN32MA,2,28,gestures/baby_POS.mp4,bl_nket,a,S,baby,1,27,5.6767726,a,TRUE
AN32MA,2,29,gestures/girl_POS.mp4,dr_ss,e,S,girl,1,28,8.363228,e,TRUE
AN32MA,2,30,gestures/frog_PL.mp4,j_mp,u,S,frog,1,29,5.0474358,u,TRUE
AN32MA,2,31,gestures/dog_PL.mp4,pl_y,a,S,dog,1,30,1.5898486,a,TRUE
AN32MA,2,32,gestures/baby_PL.mp4,sm_le,i,S,baby,1,31,3.900216,i,TRUE
AN32MA,2,1,gestures/cat_S.mp4,lo_k,o,G,cat,1,0,2.2666793,o,TRUE
AN32MA,2,2,gestures/cat_S.mp4,sl_ep,e,G,cat,1,1,1.5526017,e,TRUE
AN32MA,2,3,gestures/baby_S.mp4,sm_le,i,G,baby,1,2,2.3512328,i,TRUE
AN32MA,2,4,gestures/cat_S.mp4,ta_l,i,G,cat,1,3,1.9666756,i,TRUE
AN32MA,2,5,gestures/girl_S.mp4,dr_ss,e,G,girl,1,4,2.9872928,e,TRUE
AN32MA,2,6,gestures/baby_S.mp4,bl_nket,a,G,baby,1,5,2.1343186,a,TRUE
AN32MA,2,7,gestures/horse_S.mp4,h_ad,e,G,horse,1,6,6.588249,e,TRUE
AN32MA,2,8,gestures/girl_S.mp4,ha_r,i,G,girl,1,7,1.4163027,i,TRUE
AN32MA,2,9,gestures/car_S.mp4,m_ve,o,G,car,1,8,2.2299254,o,TRUE
AN32MA,2,10,gestures/boy_S.mp4,bo_k,o,G,boy,1,9,1.6983427,o,TRUE
AN32MA,2,11,gestures/car_S.mp4,whe_l,e,G,car,1,10,4.337546,e,TRUE
AN32MA,2,12,gestures/baby_S.mp4,t_ddy,e,G,baby,1,11,5.3582993,e,TRUE
AN32MA,2,13,gestures/frog_S.mp4,tong_e,u,G,frog,1,12,4.7707815,u,TRUE
AN32MA,2,14,gestures/dog_S.mp4,to_th,o,G,dog,1,13,4.152995,a,FALSE
AN32MA,2,15,gestures/cat_S.mp4,n_se,o,G,cat,1,14,3.188126,o,TRUE
AN32MA,2,16,gestures/boy_S.mp4,t-sh_rt,i,G,boy,1,15,1.7821958,i,TRUE
AN32MA,2,17,gestures/dog_S.mp4,pl_y,a,G,dog,1,16,3.3142889,a,TRUE
AN32MA,2,18,gestures/frog_S.mp4,list_n,e,G,frog,1,17,2.622172,e,TRUE
AN32MA,2,19,gestures/horse_S.mp4,mo_th,u,G,horse,1,18,2.7152767,o,FALSE
AN32MA,2,20,gestures/frog_S.mp4,fo_t,o,G,frog,1,19,2.0743012,o,TRUE
AN32MA,2,21,gestures/boy_S.mp4,po_nt,i,G,boy,1,20,2.4434175,i,TRUE
AN32MA,2,22,gestures/girl_S.mp4,h_g,u,G,girl,1,21,2.888951,u,TRUE
AN32MA,2,23,gestures/dog_S.mp4,n_ck,e,G,dog,1,22,2.7871244,a,FALSE
AN32MA,2,24,gestures/baby_S.mp4,cr_wl,a,G,baby,1,23,2.244665,a,TRUE
AN32MA,2,25,gestures/girl_S.mp4,wh_stle,i,G,girl,1,24,3.0561528,i,TRUE
AN32MA,2,26,gestures/car_S.mp4,wind_w,o,G,car,1,25,3.507121,o,TRUE
AN32MA,2,27,gestures/dog_S.mp4,b_rk,a,G,dog,1,26,4.4383564,a,TRUE
AN32MA,2,28,gestures/horse_S.mp4,k_ck,i,G,horse,1,27,2.503834,i,TRUE
AN32MA,2,29,gestures/boy_S.mp4,w_ve,a,G,boy,1,28,1.8467044,a,TRUE
AN32MA,2,30,gestures/frog_S.mp4,j_mp,u,G,frog,1,29,1.9913931,u,TRUE
AN32MA,2,31,gestures/horse_S.mp4,w_lk,a,G,horse,1,30,2.182681,a,TRUE
AN32MA,2,32,gestures/car_S.mp4,cr_sh,a,G,car,1,31,2.8463223,a,TRUE
AS22DR,1,1,gestures/girl_POS.mp4,ha_r,i,S,girl,1,0,3.8169801,i,TRUE
AS22DR,1,2,gestures/dog_PL.mp4,pl_y,a,S,dog,1,1,3.1775951,a,TRUE
AS22DR,1,3,gestures/cat_PL.mp4,sl_ep,e,S,cat,1,2,2.2895284,e,TRUE
AS22DR,1,4,gestures/dog_POS.mp4,n_ck,e,S,dog,1,3,8.706626,i,FALSE
AS22DR,1,5,gestures/boy_POS.mp4,bo_k,o,S,boy,1,4,7.711819,o,TRUE
AS22DR,1,6,gestures/dog_PL.mp4,b_rk,a,S,dog,1,5,9.909442,i,FALSE
AS22DR,1,7,gestures/baby_POS.mp4,t_ddy,e,S,baby,1,6,4.3250866,e,TRUE
AS22DR,1,8,gestures/baby_POS.mp4,bl_nket,a,S,baby,1,7,3.3494773,a,TRUE
AS22DR,1,9,gestures/girl_POS.mp4,dr_ss,e,S,girl,1,8,1.8889335,e,TRUE
AS22DR,1,10,gestures/baby_PL.mp4,sm_le,i,S,baby,1,9,1.8216949,i,TRUE
AS22DR,1,11,gestures/frog_PL.mp4,list_n,e,S,frog,1,10,1.9783647,e,TRUE
AS22DR,1,12,gestures/boy_POS.mp4,t-sh_rt,i,S,boy,1,11,2.24261,i,TRUE
AS22DR,1,13,gestures/horse_PL.mp4,k_ck,i,S,horse,1,12,1.9354007,i,TRUE
AS22DR,1,14,gestures/car_POS.mp4,whe_l,e,S,car,1,13,5.0494366,a,FALSE
AS22DR,1,15,gestures/frog_POS.mp4,fo_t,o,S,frog,1,14,1.925267,o,TRUE
AS22DR,1,16,gestures/frog_POS.mp4,tong_e,u,S,frog,1,15,7.844139,i,FALSE
AS22DR,1,17,gestures/car_PL.mp4,m_ve,o,S,car,1,16,1.917485,o,TRUE
AS22DR,1,18,gestures/car_POS.mp4,wind_w,o,S,car,1,17,3.8572984,o,TRUE
AS22DR,1,19,gestures/cat_POS.mp4,ta_l,i,S,cat,1,18,1.7961953,i,TRUE
AS22DR,1,20,gestures/horse_POS.mp4,h_ad,e,S,horse,1,19,1.7797395,e,TRUE
AS22DR,1,21,gestures/horse_PL.mp4,w_lk,a,S,horse,1,20,1.7221904,a,TRUE
AS22DR,1,22,gestures/cat_PL.mp4,lo_k,o,S,cat,1,21,1.5505037,o,TRUE
AS22DR,1,23,gestures/cat_POS.mp4,n_se,o,S,cat,1,22,2.1952431,o,TRUE
AS22DR,1,24,gestures/horse_POS.mp4,mo_th,u,S,horse,1,23,6.598453,o,FALSE
AS22DR,1,25,gestures/girl_PL.mp4,h_g,u,S,girl,1,24,2.5425193,a,FALSE
AS22DR,1,26,gestures/car_PL.mp4,cr_sh,a,S,car,1,25,1.719533,u,FALSE
AS22DR,1,27,gestures/dog_POS.mp4,to_th,o,S,dog,1,26,3.221032,u,FALSE
AS22DR,1,28,gestures/frog_PL.mp4,j_mp,u,S,frog,1,27,1.5783079,u,TRUE
AS22DR,1,29,gestures/boy_PL.mp4,po_nt,i,S,boy,1,28,2.2740047,i,TRUE
AS22DR,1,30,gestures/girl_PL.mp4,wh_stle,i,S,girl,1,29,3.5428827,a,FALSE
AS22DR,1,31,gestures/baby_PL.mp4,cr_wl,a,S,baby,1,30,2.2826068,a,TRUE
AS22DR,1,32,gestures/boy_PL.mp4,w_ve,a,S,boy,1,31,2.8420563,a,TRUE
AS22DR,1,33,gestures/cat_S.mp4,n_se,o,G,cat,1,32,3.3634357,o,TRUE
AS22DR,1,34,gestures/baby_S.mp4,t_ddy,e,G,baby,1,33,2.11902,e,TRUE
AS22DR,1,35,gestures/horse_S.mp4,h_ad,e,G,horse,1,34,3.4975102,e,TRUE
AS22DR,1,36,gestures/frog_S.mp4,tong_e,u,G,frog,1,35,4.4012604,u,TRUE
AS22DR,1,37,gestures/horse_S.mp4,w_lk,a,G,horse,1,36,1.4715121,a,TRUE
AS22DR,1,38,gestures/frog_S.mp4,list_n,e,G,frog,1,37,1.698848,e,TRUE
AS22DR,1,39,gestures/dog_S.mp4,b_rk,a,G,dog,1,38,4.583499,u,FALSE
AS22DR,1,40,gestures/horse_S.mp4,k_ck,i,G,horse,1,39,1.6579038,i,TRUE
AS22DR,1,41,gestures/car_S.mp4,cr_sh,a,G,car,1,40,2.546133,u,FALSE
AS22DR,1,42,gestures/boy_S.mp4,bo_k,o,G,boy,1,41,4.0527215,o,TRUE
AS22DR,1,43,gestures/girl_S.mp4,ha_r,i,G,girl,1,42,2.7283113,i,TRUE
AS22DR,1,44,gestures/boy_S.mp4,t-sh_rt,i,G,boy,1,43,2.0756063,i,TRUE
AS22DR,1,45,gestures/girl_S.mp4,wh_stle,i,G,girl,1,44,2.2699945,a,FALSE
AS22DR,1,46,gestures/car_S.mp4,m_ve,o,G,car,1,45,2.0083437,o,TRUE
AS22DR,1,47,gestures/cat_S.mp4,lo_k,o,G,cat,1,46,1.678968,o,TRUE
AS22DR,1,48,gestures/dog_S.mp4,pl_y,a,G,dog,1,47,2.0693207,a,TRUE
AS22DR,1,49,gestures/girl_S.mp4,dr_ss,e,G,girl,1,48,1.7051954,e,TRUE
AS22DR,1,50,gestures/car_S.mp4,wind_w,o,G,car,1,49,1.8950629,o,TRUE
AS22DR,1,51,gestures/cat_S.mp4,ta_l,i,G,cat,1,50,1.7022585,i,TRUE
AS22DR,1,52,gestures/boy_S.mp4,w_ve,a,G,boy,1,51,3.6005137,a,TRUE
AS22DR,1,53,gestures/horse_S.mp4,mo_th,u,G,horse,1,52,1.990101,u,TRUE
AS22DR,1,54,gestures/baby_S.mp4,sm_le,i,G,baby,1,53,1.4356332,i,TRUE
AS22DR,1,55,gestures/cat_S.mp4,sl_ep,e,G,cat,1,54,1.6796836,e,TRUE
AS22DR,1,56,gestures/dog_S.mp4,to_th,o,G,dog,1,55,1.8881525,o,TRUE
AS22DR,1,57,gestures/frog_S.mp4,j_mp,u,G,frog,1,56,3.6132479,u,TRUE
AS22DR,1,58,gestures/baby_S.mp4,cr_wl,a,G,baby,1,57,3.1110923,a,TRUE
AS22DR,1,59,gestures/girl_S.mp4,h_g,u,G,girl,1,58,2.2277982,u,TRUE
AS22DR,1,60,gestures/baby_S.mp4,bl_nket,a,G,baby,1,59,2.2816005,a,TRUE
AS22DR,1,61,gestures/frog_S.mp4,fo_t,o,G,frog,1,60,1.8068097,o,TRUE
AS22DR,1,62,gestures/dog_S.mp4,n_ck,e,G,dog,1,61,2.5368736,i,FALSE
AS22DR,1,63,gestures/boy_S.mp4,po_nt,i,G,boy,1,62,1.8701607,i,TRUE
AS22DR,1,64,gestures/car_S.mp4,whe_l,e,G,car,1,63,4.875112,e,TRUE
AS22DR,2,1,gestures/car_S.mp4,whe_l,e,G,car,1,0,2.0553873,e,TRUE
AS22DR,2,2,gestures/baby_S.mp4,t_ddy,e,G,baby,1,1,1.589902,e,TRUE
AS22DR,2,3,gestures/girl_S.mp4,ha_r,i,G,girl,1,2,3.417898,i,TRUE
AS22DR,2,4,gestures/horse_S.mp4,k_ck,i,G,horse,1,3,1.738615,i,TRUE
AS22DR,2,5,gestures/frog_S.mp4,tong_e,u,G,frog,1,4,5.249291,u,TRUE
AS22DR,2,6,gestures/horse_S.mp4,h_ad,e,G,horse,1,5,2.5653424,e,TRUE
AS22DR,2,7,gestures/frog_S.mp4,j_mp,u,G,frog,1,6,1.3339332,u,TRUE
AS22DR,2,8,gestures/horse_S.mp4,w_lk,a,G,horse,1,7,2.3523026,a,TRUE
AS22DR,2,9,gestures/boy_S.mp4,w_ve,a,G,boy,1,8,2.988199,a,TRUE
AS22DR,2,10,gestures/car_S.mp4,wind_w,o,G,car,1,9,1.7304839,o,TRUE
AS22DR,2,11,gestures/horse_S.mp4,mo_th,u,G,horse,1,10,1.759234,u,TRUE
AS22DR,2,12,gestures/boy_S.mp4,t-sh_rt,i,G,boy,1,11,1.6106836,i,TRUE
AS22DR,2,13,gestures/baby_S.mp4,bl_nket,a,G,baby,1,12,1.4983582,a,TRUE
AS22DR,2,14,gestures/dog_S.mp4,to_th,o,G,dog,1,13,2.3318279,o,TRUE
AS22DR,2,15,gestures/girl_S.mp4,wh_stle,i,G,girl,1,14,2.1542106,i,TRUE
AS22DR,2,16,gestures/cat_S.mp4,sl_ep,e,G,cat,1,15,1.3913221,e,TRUE
AS22DR,2,17,gestures/car_S.mp4,m_ve,o,G,car,1,16,1.2843782,o,TRUE
AS22DR,2,18,gestures/baby_S.mp4,sm_le,i,G,baby,1,17,2.102882,i,TRUE
AS22DR,2,19,gestures/dog_S.mp4,pl_y,a,G,dog,1,18,1.3892839,a,TRUE
AS22DR,2,20,gestures/cat_S.mp4,lo_k,o,G,cat,1,19,2.4210863,o,TRUE
AS22DR,2,21,gestures/girl_S.mp4,dr_ss,e,G,girl,1,20,1.3692105,e,TRUE
AS22DR,2,22,gestures/frog_S.mp4,list_n,e,G,frog,1,21,1.711878,e,TRUE
AS22DR,2,23,gestures/cat_S.mp4,n_se,o,G,cat,1,22,1.9490055,o,TRUE
AS22DR,2,24,gestures/baby_S.mp4,cr_wl,a,G,baby,1,23,1.9224555,a,TRUE
AS22DR,2,25,gestures/car_S.mp4,cr_sh,a,G,car,1,24,1.9043688,a,TRUE
AS22DR,2,26,gestures/girl_S.mp4,h_g,u,G,girl,1,25,1.5452322,u,TRUE
AS22DR,2,27,gestures/boy_S.mp4,po_nt,i,G,boy,1,26,1.5427029,i,TRUE
AS22DR,2,28,gestures/frog_S.mp4,fo_t,o,G,frog,1,27,1.8757784,o,TRUE
AS22DR,2,29,gestures/dog_S.mp4,b_rk,a,G,dog,1,28,3.557948,i,FALSE
AS22DR,2,30,gestures/cat_S.mp4,ta_l,i,G,cat,1,29,1.4995868,i,TRUE
AS22DR,2,31,gestures/boy_S.mp4,bo_k,o,G,boy,1,30,1.2958794,o,TRUE
AS22DR,2,32,gestures/dog_S.mp4,n_ck,e,G,dog,1,31,1.8041508,i,FALSE
AS22DR,2,33,gestures/cat_POS.mp4,ta_l,i,S,cat,1,32,1.546151,i,TRUE
AS22DR,2,34,gestures/frog_POS.mp4,tong_e,u,S,frog,1,33,4.7380443,u,TRUE
AS22DR,2,35,gestures/horse_PL.mp4,k_ck,i,S,horse,1,34,1.6525412,i,TRUE
AS22DR,2,36,gestures/frog_PL.mp4,list_n,e,S,frog,1,35,1.4133701,e,TRUE
AS22DR,2,37,gestures/baby_PL.mp4,cr_wl,a,S,baby,1,36,2.4423976,a,TRUE
AS22DR,2,38,gestures/girl_POS.mp4,dr_ss,e,S,girl,1,37,1.0405585,e,TRUE
AS22DR,2,39,gestures/horse_PL.mp4,w_lk,a,S,horse,1,38,1.1889173,a,TRUE
AS22DR,2,40,gestures/horse_POS.mp4,mo_th,u,S,horse,1,39,1.1523225,o,FALSE
AS22DR,2,41,gestures/boy_POS.mp4,bo_k,o,S,boy,1,40,1.1559416,o,TRUE
AS22DR,2,42,gestures/girl_PL.mp4,h_g,u,S,girl,1,41,3.4623735,i,FALSE
AS22DR,2,43,gestures/dog_PL.mp4,pl_y,a,S,dog,1,42,1.736208,a,TRUE
AS22DR,2,44,gestures/dog_PL.mp4,b_rk,a,S,dog,1,43,4.581316,a,TRUE
AS22DR,2,45,gestures/girl_PL.mp4,wh_stle,i,S,girl,1,44,1.2333411,i,TRUE
AS22DR,2,46,gestures/dog_POS.mp4,n_ck,e,S,dog,1,45,5.1170106,e,TRUE
AS22DR,2,47,gestures/baby_POS.mp4,bl_nket,a,S,baby,1,46,1.9750482,a,TRUE
AS22DR,2,48,gestures/car_PL.mp4,m_ve,o,S,car,1,47,2.0393143,o,TRUE
AS22DR,2,49,gestures/car_POS.mp4,whe_l,e,S,car,1,48,2.0350657,e,TRUE
AS22DR,2,50,gestures/cat_POS.mp4,n_se,o,S,cat,1,49,1.6107032,o,TRUE
AS22DR,2,51,gestures/car_PL.mp4,cr_sh,a,S,car,1,50,1.3310738,a,TRUE
AS22DR,2,52,gestures/cat_PL.mp4,lo_k,o,S,cat,1,51,1.2647326,o,TRUE
AS22DR,2,53,gestures/boy_POS.mp4,t-sh_rt,i,S,boy,1,52,1.6808306,i,TRUE
AS22DR,2,54,gestures/boy_PL.mp4,po_nt,i,S,boy,1,53,2.0763388,i,TRUE
AS22DR,2,55,gestures/baby_PL.mp4,sm_le,i,S,baby,1,54,2.7935193,i,TRUE
AS22DR,2,56,gestures/cat_PL.mp4,sl_ep,e,S,cat,1,55,1.6710565,e,TRUE
AS22DR,2,57,gestures/frog_POS.mp4,fo_t,o,S,frog,1,56,2.1438775,o,TRUE
AS22DR,2,58,gestures/baby_POS.mp4,t_ddy,e,S,baby,1,57,1.5354892,e,TRUE
AS22DR,2,59,gestures/boy_PL.mp4,w_ve,a,S,boy,1,58,2.2596753,a,TRUE
AS22DR,2,60,gestures/car_POS.mp4,wind_w,o,S,car,1,59,1.5228724,o,TRUE
AS22DR,2,61,gestures/horse_POS.mp4,h_ad,e,S,horse,1,60,1.5173057,e,TRUE
AS22DR,2,62,gestures/girl_POS.mp4,ha_r,i,S,girl,1,61,2.3908849,i,TRUE
AS22DR,2,63,gestures/dog_POS.mp4,to_th,o,S,dog,1,62,2.3053648,o,TRUE
AS22DR,2,64,gestures/frog_PL.mp4,j_mp,u,S,frog,1,63,1.6620145,u,TRUE
CH29TH,1,1,gestures/horse_S.mp4,mo_th,u,G,horse,1,0,13.383489,a,FALSE
CH29TH,1,2,gestures/boy_S.mp4,t-sh_rt,i,G,boy,1,1,2.819338,i,TRUE
CH29TH,1,3,gestures/baby_S.mp4,cr_wl,a,G,baby,1,2,2.297799,e,FALSE
CH29TH,1,4,gestures/frog_S.mp4,j_mp,u,G,frog,1,3,1.5704936,u,TRUE
CH29TH,1,5,gestures/girl_S.mp4,ha_r,i,G,girl,1,4,3.954982,e,FALSE
CH29TH,1,6,gestures/dog_S.mp4,pl_y,a,G,dog,1,5,1.8408166,a,TRUE
CH29TH,1,7,gestures/car_S.mp4,wind_w,o,G,car,1,6,2.431125,o,TRUE
CH29TH,1,8,gestures/baby_S.mp4,sm_le,i,G,baby,1,7,4.2093863,o,FALSE
CH29TH,1,9,gestures/frog_S.mp4,fo_t,o,G,frog,1,8,2.3621237,u,FALSE
CH29TH,1,10,gestures/dog_S.mp4,to_th,o,G,dog,1,9,2.9722714,u,FALSE
CH29TH,1,11,gestures/cat_S.mp4,n_se,o,G,cat,1,10,1.7628932,o,TRUE
CH29TH,1,12,gestures/dog_S.mp4,n_ck,e,G,dog,1,11,1.8503036,e,TRUE
CH29TH,1,13,gestures/car_S.mp4,m_ve,o,G,car,1,12,3.880096,o,TRUE
CH29TH,1,14,gestures/boy_S.mp4,bo_k,o,G,boy,1,13,1.5575935,o,TRUE
CH29TH,1,15,gestures/girl_S.mp4,h_g,u,G,girl,1,14,6.0515294,o,FALSE
CH29TH,1,16,gestures/cat_S.mp4,ta_l,i,G,cat,1,15,3.1148698,i,TRUE
CH29TH,1,17,gestures/cat_S.mp4,lo_k,o,G,cat,1,16,1.9591703,o,TRUE
CH29TH,1,18,gestures/boy_S.mp4,po_nt,i,G,boy,1,17,2.0856278,i,TRUE
CH29TH,1,19,gestures/horse_S.mp4,w_lk,a,G,horse,1,18,2.805375,a,TRUE
CH29TH,1,20,gestures/frog_S.mp4,tong_e,u,G,frog,1,19,18.743298,o,FALSE
CH29TH,1,21,gestures/baby_S.mp4,t_ddy,e,G,baby,1,20,1.9277334,a,FALSE
CH29TH,1,22,gestures/car_S.mp4,cr_sh,a,G,car,1,21,1.9158218,a,TRUE
CH29TH,1,23,gestures/boy_S.mp4,w_ve,a,G,boy,1,22,8.584008,u,FALSE
CH29TH,1,24,gestures/girl_S.mp4,dr_ss,e,G,girl,1,23,2.0198863,a,FALSE
CH29TH,1,25,gestures/car_S.mp4,whe_l,e,G,car,1,24,2.7176108,e,TRUE
CH29TH,1,26,gestures/girl_S.mp4,wh_stle,i,G,girl,1,25,6.9784184,o,FALSE
CH29TH,1,27,gestures/horse_S.mp4,h_ad,e,G,horse,1,26,11.888161,a,FALSE
CH29TH,1,28,gestures/cat_S.mp4,sl_ep,e,G,cat,1,27,1.8295696,e,TRUE
CH29TH,1,29,gestures/frog_S.mp4,list_n,e,G,frog,1,28,2.5487585,i,FALSE
CH29TH,1,30,gestures/horse_S.mp4,k_ck,i,G,horse,1,29,3.417297,i,TRUE
CH29TH,1,31,gestures/baby_S.mp4,bl_nket,a,G,baby,1,30,4.6621213,e,FALSE
CH29TH,1,32,gestures/dog_S.mp4,b_rk,a,G,dog,1,31,2.2018847,o,FALSE
CH29TH,1,33,gestures/horse_POS.mp4,mo_th,u,S,horse,1,32,3.211871,u,TRUE
CH29TH,1,34,gestures/baby_POS.mp4,bl_nket,a,S,baby,1,33,3.2697365,a,TRUE
CH29TH,1,35,gestures/frog_POS.mp4,tong_e,u,S,frog,1,34,4.741257,u,TRUE
CH29TH,1,36,gestures/car_POS.mp4,wind_w,o,S,car,1,35,1.487082,o,TRUE
CH29TH,1,37,gestures/dog_PL.mp4,pl_y,a,S,dog,1,36,1.5080218,a,TRUE
CH29TH,1,38,gestures/cat_POS.mp4,n_se,o,S,cat,1,37,1.689646,o,TRUE
CH29TH,1,39,gestures/frog_POS.mp4,fo_t,o,S,frog,1,38,1.7036318,o,TRUE
CH29TH,1,40,gestures/baby_PL.mp4,cr_wl,a,S,baby,1,39,1.7081815,e,FALSE
CH29TH,1,41,gestures/frog_PL.mp4,j_mp,u,S,frog,1,40,1.5803604,u,TRUE
CH29TH,1,42,gestures/boy_PL.mp4,po_nt,i,S,boy,1,41,2.1541564,i,TRUE
CH29TH,1,43,gestures/car_PL.mp4,cr_sh,a,S,car,1,42,2.0119529,a,TRUE
CH29TH,1,44,gestures/dog_POS.mp4,n_ck,e,S,dog,1,43,1.6312361,a,FALSE
CH29TH,1,45,gestures/girl_POS.mp4,ha_r,i,S,girl,1,44,2.8883564,e,FALSE
CH29TH,1,46,gestures/girl_PL.mp4,h_g,u,S,girl,1,45,3.501232,u,TRUE
CH29TH,1,47,gestures/horse_POS.mp4,h_ad,e,S,horse,1,46,4.902277,e,TRUE
CH29TH,1,48,gestures/baby_PL.mp4,sm_le,i,S,baby,1,47,3.160487,i,TRUE
CH29TH,1,49,gestures/girl_PL.mp4,wh_stle,i,S,girl,1,48,2.3093624,i,TRUE
CH29TH,1,50,gestures/girl_POS.mp4,dr_ss,e,S,girl,1,49,2.305058,a,FALSE
CH29TH,1,51,gestures/boy_PL.mp4,w_ve,a,S,boy,1,50,2.9986444,o,FALSE
CH29TH,1,52,gestures/boy_POS.mp4,t-sh_rt,i,S,boy,1,51,1.8370768,i,TRUE
CH29TH,1,53,gestures/dog_POS.mp4,to_th,o,S,dog,1,52,4.7524786,o,TRUE
CH29TH,1,54,gestures/car_POS.mp4,whe_l,e,S,car,1,53,1.6252297,e,TRUE
CH29TH,1,55,gestures/cat_POS.mp4,ta_l,i,S,cat,1,54,2.4766912,i,TRUE
CH29TH,1,56,gestures/horse_PL.mp4,k_ck,i,S,horse,1,55,1.4535124,i,TRUE
CH29TH,1,57,gestures/cat_PL.mp4,lo_k,o,S,cat,1,56,1.3553042,o,TRUE
CH29TH,1,58,gestures/boy_POS.mp4,bo_k,o,S,boy,1,57,1.3401588,o,TRUE
CH29TH,1,59,gestures/baby_POS.mp4,t_ddy,e,S,baby,1,58,1.8811859,a,FALSE
CH29TH,1,60,gestures/cat_PL.mp4,sl_ep,e,S,cat,1,59,1.8227075,e,TRUE
CH29TH,1,61,gestures/horse_PL.mp4,w_lk,a,S,horse,1,60,1.6184411,a,TRUE
CH29TH,1,62,gestures/dog_PL.mp4,b_rk,a,S,dog,1,61,1.8270406,o,FALSE
CH29TH,1,63,gestures/frog_PL.mp4,list_n,e,S,frog,1,62,2.8497038,i,FALSE
CH29TH,1,64,gestures/car_PL.mp4,m_ve,o,S,car,1,63,2.1155446,o,TRUE
CH29TH,2,1,gestures/cat_S.mp4,lo_k,o,G,cat,1,0,1.7154291,o,TRUE
CH29TH,2,2,gestures/boy_S.mp4,po_nt,i,G,boy,1,1,1.7962933,i,TRUE
CH29TH,2,3,gestures/baby_S.mp4,sm_le,i,G,baby,1,2,3.7962704,i,TRUE
CH29TH,2,4,gestures/horse_S.mp4,w_lk,a,G,horse,1,3,1.6314745,a,TRUE
CH29TH,2,5,gestures/cat_S.mp4,n_se,o,G,cat,1,4,1.5817386,o,TRUE
CH29TH,2,6,gestures/boy_S.mp4,bo_k,o,G,boy,1,5,1.7515804,o,TRUE
CH29TH,2,7,gestures/frog_S.mp4,tong_e,u,G,frog,1,6,15.849418,a,FALSE
CH29TH,2,8,gestures/car_S.mp4,cr_sh,a,G,car,1,7,1.6709442,a,TRUE
CH29TH,2,9,gestures/car_S.mp4,whe_l,e,G,car,1,8,2.205673,e,TRUE
CH29TH,2,10,gestures/girl_S.mp4,dr_ss,e,G,girl,1,9,1.9858166,e,TRUE
CH29TH,2,11,gestures/car_S.mp4,m_ve,o,G,car,1,10,2.24666,o,TRUE
CH29TH,2,12,gestures/baby_S.mp4,bl_nket,a,G,baby,1,11,1.9796944,e,FALSE
CH29TH,2,13,gestures/cat_S.mp4,ta_l,i,G,cat,1,12,1.8650397,i,TRUE
CH29TH,2,14,gestures/boy_S.mp4,w_ve,a,G,boy,1,13,9.824969,a,TRUE
CH29TH,2,15,gestures/girl_S.mp4,wh_stle,i,G,girl,1,14,2.4435399,i,TRUE
CH29TH,2,16,gestures/horse_S.mp4,k_ck,i,G,horse,1,15,1.438026,i,TRUE
CH29TH,2,17,gestures/dog_S.mp4,b_rk,a,G,dog,1,16,2.8156626,o,FALSE
CH29TH,2,18,gestures/frog_S.mp4,list_n,e,G,frog,1,17,1.9923387,i,FALSE
CH29TH,2,19,gestures/frog_S.mp4,j_mp,u,G,frog,1,18,1.8687836,u,TRUE
CH29TH,2,20,gestures/baby_S.mp4,t_ddy,e,G,baby,1,19,1.6586823,e,TRUE
CH29TH,2,21,gestures/cat_S.mp4,sl_ep,e,G,cat,1,20,2.816906,e,TRUE
CH29TH,2,22,gestures/girl_S.mp4,h_g,u,G,girl,1,21,1.6292737,u,TRUE
CH29TH,2,23,gestures/dog_S.mp4,to_th,o,G,dog,1,22,2.6382613,o,TRUE
CH29TH,2,24,gestures/horse_S.mp4,mo_th,u,G,horse,1,23,1.632268,u,TRUE
CH29TH,2,25,gestures/dog_S.mp4,n_ck,e,G,dog,1,24,1.7625242,e,TRUE
CH29TH,2,26,gestures/girl_S.mp4,ha_r,i,G,girl,1,25,2.2508352,e,FALSE
CH29TH,2,27,gestures/dog_S.mp4,pl_y,a,G,dog,1,26,1.7438071,a,TRUE
CH29TH,2,28,gestures/boy_S.mp4,t-sh_rt,i,G,boy,1,27,2.0326097,i,TRUE
CH29TH,2,29,gestures/car_S.mp4,wind_w,o,G,car,1,28,1.9077353,o,TRUE
CH29TH,2,30,gestures/horse_S.mp4,h_ad,e,G,horse,1,29,4.393581,a,FALSE
CH29TH,2,31,gestures/frog_S.mp4,fo_t,o,G,frog,1,30,1.7123083,o,TRUE
CH29TH,2,32,gestures/baby_S.mp4,cr_wl,a,G,baby,1,31,1.683522,a,TRUE
CH29TH,2,33,gestures/car_PL.mp4,m_ve,o,S,car,1,32,1.610259,o,TRUE
CH29TH,2,34,gestures/horse_POS.mp4,mo_th,u,S,horse,1,33,2.5587335,u,TRUE
CH29TH,2,35,gestures/dog_PL.mp4,b_rk,a,S,dog,1,34,2.6782444,o,FALSE
CH29TH,2,36,gestures/cat_POS.mp4,n_se,o,S,cat,1,35,1.3874073,o,TRUE
CH29TH,2,37,gestures/girl_POS.mp4,ha_r,i,S,girl,1,36,1.6318591,i,TRUE
CH29TH,2,38,gestures/dog_POS.mp4,to_th,o,S,dog,1,37,1.8798366,u,FALSE
CH29TH,2,39,gestures/girl_POS.mp4,dr_ss,e,S,girl,1,38,2.091841,e,TRUE
CH29TH,2,40,gestures/dog_PL.mp4,pl_y,a,S,dog,1,39,1.2493678,a,TRUE
CH29TH,2,41,gestures/car_PL.mp4,cr_sh,a,S,car,1,40,1.6267139,a,TRUE
CH29TH,2,42,gestures/boy_POS.mp4,t-sh_rt,i,S,boy,1,41,1.689686,i,TRUE
CH29TH,2,43,gestures/cat_POS.mp4,ta_l,i,S,cat,1,42,1.6675682,i,TRUE
CH29TH,2,44,gestures/horse_PL.mp4,w_lk,a,S,horse,1,43,1.3312302,a,TRUE
CH29TH,2,45,gestures/frog_PL.mp4,j_mp,u,S,frog,1,44,1.7882198,u,TRUE
CH29TH,2,46,gestures/boy_PL.mp4,w_ve,a,S,boy,1,45,3.714713,a,TRUE
CH29TH,2,47,gestures/cat_PL.mp4,sl_ep,e,S,cat,1,46,1.5697547,e,TRUE
CH29TH,2,48,gestures/frog_POS.mp4,fo_t,o,S,frog,1,47,1.1767266,o,TRUE
CH29TH,2,49,gestures/frog_PL.mp4,list_n,e,S,frog,1,48,2.929735,e,TRUE
CH29TH,2,50,gestures/car_POS.mp4,wind_w,o,S,car,1,49,1.4130023,o,TRUE
CH29TH,2,51,gestures/boy_POS.mp4,bo_k,o,S,boy,1,50,1.1533085,o,TRUE
CH29TH,2,52,gestures/baby_POS.mp4,t_ddy,e,S,baby,1,51,2.0926466,a,FALSE
CH29TH,2,53,gestures/baby_POS.mp4,bl_nket,a,S,baby,1,52,1.7158284,e,FALSE
CH29TH,2,54,gestures/car_POS.mp4,whe_l,e,S,car,1,53,1.5034604,e,TRUE
CH29TH,2,55,gestures/dog_POS.mp4,n_ck,e,S,dog,1,54,1.3916426,e,TRUE
CH29TH,2,56,gestures/horse_PL.mp4,k_ck,i,S,horse,1,55,2.00738,i,TRUE
CH29TH,2,57,gestures/baby_PL.mp4,sm_le,i,S,baby,1,56,4.681583,a,FALSE
CH29TH,2,58,gestures/girl_PL.mp4,h_g,u,S,girl,1,57,1.8274914,u,TRUE
CH29TH,2,59,gestures/frog_POS.mp4,tong_e,u,S,frog,1,58,5.5618,o,FALSE
CH29TH,2,60,gestures/girl_PL.mp4,wh_stle,i,S,girl,1,59,2.24889,i,TRUE
CH29TH,2,61,gestures/horse_POS.mp4,h_ad,e,S,horse,1,60,14.623087,a,FALSE
CH29TH,2,62,gestures/cat_PL.mp4,lo_k,o,S,cat,1,61,1.2122295,o,TRUE
CH29TH,2,63,gestures/boy_PL.mp4,po_nt,i,S,boy,1,62,1.9680517,i,TRUE
CH29TH,2,64,gestures/baby_PL.mp4,cr_wl,a,S,baby,1,63,4.394068,e,FALSE
CL18JE,1,1,gestures/boy_S.mp4,bo_k,o,G,boy,1,0,2.187936,o,TRUE
CL18JE,1,2,gestures/cat_S.mp4,ta_l,i,G,cat,1,1,2.5406911,i,TRUE
CL18JE,1,3,gestures/girl_S.mp4,ha_r,i,G,girl,1,2,2.6358755,a,FALSE
CL18JE,1,4,gestures/boy_S.mp4,t-sh_rt,i,G,boy,1,3,3.2960012,i,TRUE
CL18JE,1,5,gestures/frog_S.mp4,j_mp,u,G,frog,1,4,3.3095024,u,TRUE
CL18JE,1,6,gestures/car_S.mp4,m_ve,o,G,car,1,5,1.7430626,o,TRUE
CL18JE,1,7,gestures/frog_S.mp4,list_n,e,G,frog,1,6,4.1298995,e,TRUE
CL18JE,1,8,gestures/baby_S.mp4,bl_nket,a,G,baby,1,7,2.4274852,a,TRUE
CL18JE,1,9,gestures/girl_S.mp4,wh_stle,i,G,girl,1,8,3.9022102,i,TRUE
CL18JE,1,10,gestures/cat_S.mp4,lo_k,o,G,cat,1,9,2.578654,o,TRUE
CL18JE,1,11,gestures/baby_S.mp4,cr_wl,a,G,baby,1,10,6.635804,a,TRUE
CL18JE,1,12,gestures/car_S.mp4,whe_l,e,G,car,1,11,2.8455179,e,TRUE
CL18JE,1,13,gestures/cat_S.mp4,sl_ep,e,G,cat,1,12,2.399851,e,TRUE
CL18JE,1,14,gestures/car_S.mp4,wind_w,o,G,car,1,13,2.2476833,o,TRUE
CL18JE,1,15,gestures/horse_S.mp4,mo_th,u,G,horse,1,14,3.8234892,o,FALSE
CL18JE,1,16,gestures/girl_S.mp4,h_g,u,G,girl,1,15,5.7018566,i,FALSE
CL18JE,1,17,gestures/dog_S.mp4,n_ck,e,G,dog,1,16,2.7475352,e,TRUE
CL18JE,1,18,gestures/dog_S.mp4,b_rk,a,G,dog,1,17,10.736679,a,TRUE
CL18JE,1,19,gestures/horse_S.mp4,k_ck,i,G,horse,1,18,2.5281491,i,TRUE
CL18JE,1,20,gestures/cat_S.mp4,n_se,o,G,cat,1,19,2.0643563,o,TRUE
CL18JE,1,21,gestures/horse_S.mp4,w_lk,a,G,horse,1,20,2.246197,a,TRUE
CL18JE,1,22,gestures/dog_S.mp4,pl_y,a,G,dog,1,21,1.6105516,a,TRUE
CL18JE,1,23,gestures/boy_S.mp4,w_ve,a,G,boy,1,22,2.471582,a,TRUE
CL18JE,1,24,gestures/boy_S.mp4,po_nt,i,G,boy,1,23,3.8358822,a,FALSE
CL18JE,1,25,gestures/frog_S.mp4,fo_t,o,G,frog,1,24,2.6233034,o,TRUE
CL18JE,1,26,gestures/horse_S.mp4,h_ad,e,G,horse,1,25,6.423815,e,TRUE
CL18JE,1,27,gestures/girl_S.mp4,dr_ss,e,G,girl,1,26,2.3733716,e,TRUE
CL18JE,1,28,gestures/baby_S.mp4,sm_le,i,G,baby,1,27,3.7713697,i,TRUE
CL18JE,1,29,gestures/baby_S.mp4,t_ddy,e,G,baby,1,28,2.1298156,e,TRUE
CL18JE,1,30,gestures/frog_S.mp4,tong_e,u,G,frog,1,29,3.3088048,u,TRUE
CL18JE,1,31,gestures/dog_S.mp4,to_th,o,G,dog,1,30,2.726533,o,TRUE
CL18JE,1,32,gestures/car_S.mp4,cr_sh,a,G,car,1,31,5.5299454,a,TRUE
CL18JE,1,33,gestures/boy_POS.mp4,bo_k,o,S,boy,1,32,2.3151007,o,TRUE
CL18JE,1,34,gestures/dog_POS.mp4,to_th,o,S,dog,1,33,2.6393974,o,TRUE
CL18JE,1,35,gestures/cat_PL.mp4,sl_ep,e,S,cat,1,34,2.127932,e,TRUE
CL18JE,1,36,gestures/horse_PL.mp4,k_ck,i,S,horse,1,35,2.627143,i,TRUE
CL18JE,1,37,gestures/car_PL.mp4,m_ve,o,S,car,1,36,2.2178652,o,TRUE
CL18JE,1,38,gestures/horse_POS.mp4,mo_th,u,S,horse,1,37,3.443045,u,TRUE
CL18JE,1,39,gestures/horse_POS.mp4,h_ad,e,S,horse,1,38,8.969048,e,TRUE
CL18JE,1,40,gestures/frog_PL.mp4,j_mp,u,S,frog,1,39,2.0123956,u,TRUE
CL18JE,1,41,gestures/boy_POS.mp4,t-sh_rt,i,S,boy,1,40,2.2819796,i,TRUE
CL18JE,1,42,gestures/car_POS.mp4,whe_l,e,S,car,1,41,2.5436592,e,TRUE
CL18JE,1,43,gestures/dog_PL.mp4,b_rk,a,S,dog,1,42,4.3595867,a,TRUE
CL18JE,1,44,gestures/girl_PL.mp4,wh_stle,i,S,girl,1,43,2.6649382,i,TRUE
CL18JE,1,45,gestures/dog_PL.mp4,pl_y,a,S,dog,1,44,2.2727711,a,TRUE
CL18JE,1,46,gestures/frog_POS.mp4,tong_e,u,S,frog,1,45,2.786097,u,TRUE
CL18JE,1,47,gestures/baby_PL.mp4,cr_wl,a,S,baby,1,46,2.5067,a,TRUE
CL18JE,1,48,gestures/frog_POS.mp4,fo_t,o,S,frog,1,47,2.4031477,o,TRUE
CL18JE,1,49,gestures/horse_PL.mp4,w_lk,a,S,horse,1,48,2.3960254,a,TRUE
CL18JE,1,50,gestures/frog_PL.mp4,list_n,e,S,frog,1,49,3.06734,e,TRUE
CL18JE,1,51,gestures/baby_PL.mp4,sm_le,i,S,baby,1,50,3.2087555,i,TRUE
CL18JE,1,52,gestures/dog_POS.mp4,n_ck,e,S,dog,1,51,2.2824793,e,TRUE
CL18JE,1,53,gestures/baby_POS.mp4,t_ddy,e,S,baby,1,52,1.7001842,e,TRUE
CL18JE,1,54,gestures/boy_PL.mp4,w_ve,a,S,boy,1,53,2.140256,a,TRUE
CL18JE,1,55,gestures/girl_PL.mp4,h_g,u,S,girl,1,54,2.2332776,u,TRUE
CL18JE,1,56,gestures/cat_POS.mp4,ta_l,i,S,cat,1,55,1.9175853,i,TRUE
CL18JE,1,57,gestures/girl_POS.mp4,ha_r,i,S,girl,1,56,2.6072817,e,FALSE
CL18JE,1,58,gestures/cat_PL.mp4,lo_k,o,S,cat,1,57,2.2029278,o,TRUE
CL18JE,1,59,gestures/baby_POS.mp4,bl_nket,a,S,baby,1,58,2.3140485,a,TRUE
CL18JE,1,60,gestures/car_POS.mp4,wind_w,o,S,car,1,59,2.0059717,o,TRUE
CL18JE,1,61,gestures/car_PL.mp4,cr_sh,a,S,car,1,60,1.5252942,a,TRUE
CL18JE,1,62,gestures/cat_POS.mp4,n_se,o,S,cat,1,61,2.4993155,o,TRUE
CL18JE,1,63,gestures/girl_POS.mp4,dr_ss,e,S,girl,1,62,2.2597535,e,TRUE
CL18JE,1,64,gestures/boy_PL.mp4,po_nt,i,S,boy,1,63,2.385796,i,TRUE
CL18JE,2,1,gestures/boy_POS.mp4,bo_k,o,S,boy,1,0,2.4343538,o,TRUE
CL18JE,2,2,gestures/baby_PL.mp4,sm_le,i,S,baby,1,1,2.8613114,i,TRUE
CL18JE,2,3,gestures/horse_PL.mp4,w_lk,a,S,horse,1,2,2.4486074,a,TRUE
CL18JE,2,4,gestures/frog_POS.mp4,tong_e,u,S,frog,1,3,2.4014235,u,TRUE
CL18JE,2,5,gestures/dog_POS.mp4,n_ck,e,S,dog,1,4,2.0116258,e,TRUE
CL18JE,2,6,gestures/car_POS.mp4,wind_w,o,S,car,1,5,1.9450995,o,TRUE
CL18JE,2,7,gestures/car_POS.mp4,whe_l,e,S,car,1,6,3.5090137,e,TRUE
CL18JE,2,8,gestures/cat_POS.mp4,n_se,o,S,cat,1,7,2.0329003,o,TRUE
CL18JE,2,9,gestures/dog_POS.mp4,to_th,o,S,dog,1,8,2.7696326,o,TRUE
CL18JE,2,10,gestures/cat_PL.mp4,sl_ep,e,S,cat,1,9,1.8421633,e,TRUE
CL18JE,2,11,gestures/boy_POS.mp4,t-sh_rt,i,S,boy,1,10,2.4375598,i,TRUE
CL18JE,2,12,gestures/girl_POS.mp4,ha_r,i,S,girl,1,11,2.1758094,i,TRUE
CL18JE,2,13,gestures/cat_POS.mp4,ta_l,i,S,cat,1,12,1.7657987,i,TRUE
CL18JE,2,14,gestures/cat_PL.mp4,lo_k,o,S,cat,1,13,1.7006302,o,TRUE
CL18JE,2,15,gestures/girl_POS.mp4,dr_ss,e,S,girl,1,14,2.1252525,e,TRUE
CL18JE,2,16,gestures/car_PL.mp4,m_ve,o,S,car,1,15,2.0733294,o,TRUE
CL18JE,2,17,gestures/boy_PL.mp4,po_nt,i,S,boy,1,16,1.376275,i,TRUE
CL18JE,2,18,gestures/boy_PL.mp4,w_ve,a,S,boy,1,17,1.9986259,a,TRUE
CL18JE,2,19,gestures/girl_PL.mp4,wh_stle,i,S,girl,1,18,1.703031,i,TRUE
CL18JE,2,20,gestures/dog_PL.mp4,b_rk,a,S,dog,1,19,2.0611103,a,TRUE
CL18JE,2,21,gestures/frog_PL.mp4,j_mp,u,S,frog,1,20,3.245442,u,TRUE
CL18JE,2,22,gestures/baby_POS.mp4,t_ddy,e,S,baby,1,21,1.9249016,e,TRUE
CL18JE,2,23,gestures/car_PL.mp4,cr_sh,a,S,car,1,22,2.4472277,a,TRUE
CL18JE,2,24,gestures/horse_POS.mp4,mo_th,u,S,horse,1,23,3.5136635,u,TRUE
CL18JE,2,25,gestures/frog_POS.mp4,fo_t,o,S,frog,1,24,2.517782,o,TRUE
CL18JE,2,26,gestures/dog_PL.mp4,pl_y,a,S,dog,1,25,1.9339366,a,TRUE
CL18JE,2,27,gestures/baby_POS.mp4,bl_nket,a,S,baby,1,26,1.4411912,a,TRUE
CL18JE,2,28,gestures/horse_PL.mp4,k_ck,i,S,horse,1,27,1.9467753,i,TRUE
CL18JE,2,29,gestures/baby_PL.mp4,cr_wl,a,S,baby,1,28,1.5616208,a,TRUE
CL18JE,2,30,gestures/horse_POS.mp4,h_ad,e,S,horse,1,29,3.8255424,e,TRUE
CL18JE,2,31,gestures/frog_PL.mp4,list_n,e,S,frog,1,30,2.3735976,e,TRUE
CL18JE,2,32,gestures/girl_PL.mp4,h_g,u,S,girl,1,31,1.8852836,u,TRUE
CL18JE,2,33,gestures/horse_S.mp4,w_lk,a,G,horse,1,32,1.5674386,a,TRUE
CL18JE,2,34,gestures/boy_S.mp4,w_ve,a,G,boy,1,33,1.881859,a,TRUE
CL18JE,2,35,gestures/girl_S.mp4,ha_r,i,G,girl,1,34,1.9777457,i,TRUE
CL18JE,2,36,gestures/car_S.mp4,whe_l,e,G,car,1,35,1.5021145,e,TRUE
CL18JE,2,37,gestures/cat_S.mp4,n_se,o,G,cat,1,36,2.0666454,o,TRUE
CL18JE,2,38,gestures/frog_S.mp4,j_mp,u,G,frog,1,37,3.2912934,u,TRUE
CL18JE,2,39,gestures/horse_S.mp4,h_ad,e,G,horse,1,38,2.6078737,e,TRUE
CL18JE,2,40,gestures/baby_S.mp4,cr_wl,a,G,baby,1,39,1.7907223,a,TRUE
CL18JE,2,41,gestures/frog_S.mp4,tong_e,u,G,frog,1,40,2.2177632,u,TRUE
CL18JE,2,42,gestures/cat_S.mp4,ta_l,i,G,cat,1,41,1.7927719,i,TRUE
CL18JE,2,43,gestures/baby_S.mp4,t_ddy,e,G,baby,1,42,1.9593441,e,TRUE
CL18JE,2,44,gestures/dog_S.mp4,n_ck,e,G,dog,1,43,2.334505,e,TRUE
CL18JE,2,45,gestures/car_S.mp4,cr_sh,a,G,car,1,44,2.2857282,a,TRUE
CL18JE,2,46,gestures/horse_S.mp4,k_ck,i,G,horse,1,45,1.823546,i,TRUE
CL18JE,2,47,gestures/cat_S.mp4,sl_ep,e,G,cat,1,46,1.4874941,e,TRUE
CL18JE,2,48,gestures/boy_S.mp4,t-sh_rt,i,G,boy,1,47,1.83757,i,TRUE
CL18JE,2,49,gestures/girl_S.mp4,h_g,u,G,girl,1,48,1.2927358,u,TRUE
CL18JE,2,50,gestures/dog_S.mp4,to_th,o,G,dog,1,49,2.2982044,o,TRUE
CL18JE,2,51,gestures/cat_S.mp4,lo_k,o,G,cat,1,50,1.8321576,o,TRUE
CL18JE,2,52,gestures/girl_S.mp4,wh_stle,i,G,girl,1,51,1.9017738,i,TRUE
CL18JE,2,53,gestures/frog_S.mp4,list_n,e,G,frog,1,52,1.3856075,e,TRUE
CL18JE,2,54,gestures/car_S.mp4,m_ve,o,G,car,1,53,2.192346,o,TRUE
CL18JE,2,55,gestures/boy_S.mp4,po_nt,i,G,boy,1,54,2.0173519,i,TRUE
CL18JE,2,56,gestures/car_S.mp4,wind_w,o,G,car,1,55,1.5272131,o,TRUE
CL18JE,2,57,gestures/girl_S.mp4,dr_ss,e,G,girl,1,56,2.7404394,e,TRUE
CL18JE,2,58,gestures/baby_S.mp4,sm_le,i,G,baby,1,57,2.0372324,i,TRUE
CL18JE,2,59,gestures/dog_S.mp4,b_rk,a,G,dog,1,58,1.2903684,a,TRUE
CL18JE,2,60,gestures/boy_S.mp4,bo_k,o,G,boy,1,59,2.914021,o,TRUE
CL18JE,2,61,gestures/frog_S.mp4,fo_t,o,G,frog,1,60,2.0830317,o,TRUE
CL18JE,2,62,gestures/dog_S.mp4,pl_y,a,G,dog,1,61,1.3374761,a,TRUE
CL18JE,2,63,gestures/horse_S.mp4,mo_th,u,G,horse,1,62,3.4660277,u,TRUE
CL18JE,2,64,gestures/baby_S.mp4,bl_nket,a,G,baby,1,63,2.5971086,a,TRUE
EB12AY,1,1,gestures/baby_POS.mp4,bl_nket,a,S,baby,1,0,8.1023790000000009,a,TRUE
EB12AY,1,2,gestures/horse_PL.mp4,k_ck,i,S,horse,1,1,2.8050554,a,FALSE
EB12AY,1,3,gestures/boy_POS.mp4,t-sh_rt,i,S,boy,1,2,4.084539,e,FALSE
EB12AY,1,4,gestures/car_POS.mp4,wind_w,o,S,car,1,3,5.054311,o,TRUE
EB12AY,1,5,gestures/girl_POS.mp4,ha_r,i,S,girl,1,4,5.7258186,e,FALSE
EB12AY,1,6,gestures/frog_POS.mp4,fo_t,o,S,frog,1,5,9.571877,a,FALSE
EB12AY,1,7,gestures/girl_POS.mp4,dr_ss,e,S,girl,1,6,2.989803,e,TRUE
EB12AY,1,8,gestures/baby_PL.mp4,cr_wl,a,S,baby,1,7,8.224081,u,FALSE
EB12AY,1,9,gestures/cat_PL.mp4,sl_ep,e,S,cat,1,8,3.8356638,i,FALSE
EB12AY,1,10,gestures/boy_POS.mp4,bo_k,o,S,boy,1,9,2.1745558,o,TRUE
EB12AY,1,11,gestures/frog_PL.mp4,list_n,e,S,frog,1,10,4.9813156,e,TRUE
EB12AY,1,12,gestures/car_POS.mp4,whe_l,e,S,car,1,11,5.2822933,o,FALSE
EB12AY,1,13,gestures/frog_POS.mp4,tong_e,u,S,frog,1,12,4.538057,e,FALSE
EB12AY,1,14,gestures/baby_PL.mp4,sm_le,i,S,baby,1,13,3.0799496,i,TRUE
EB12AY,1,15,gestures/car_PL.mp4,m_ve,o,S,car,1,14,4.915147,a,FALSE
EB12AY,1,16,gestures/girl_PL.mp4,wh_stle,i,S,girl,1,15,5.6686783,e,FALSE
EB12AY,1,17,gestures/cat_POS.mp4,n_se,o,S,cat,1,16,2.0354335,a,FALSE
EB12AY,1,18,gestures/girl_PL.mp4,h_g,u,S,girl,1,17,2.3610811,u,TRUE
EB12AY,1,19,gestures/dog_POS.mp4,n_ck,e,S,dog,1,18,4.2024183,a,FALSE
EB12AY,1,20,gestures/dog_PL.mp4,b_rk,a,S,dog,1,19,3.2199018,a,TRUE
EB12AY,1,21,gestures/cat_PL.mp4,lo_k,o,S,cat,1,20,2.1302423,o,TRUE
EB12AY,1,22,gestures/frog_PL.mp4,j_mp,u,S,frog,1,21,1.6895964,u,TRUE
EB12AY,1,23,gestures/horse_POS.mp4,mo_th,u,S,horse,1,22,2.1011965,u,TRUE
EB12AY,1,24,gestures/horse_PL.mp4,w_lk,a,S,horse,1,23,2.1106467,i,FALSE
EB12AY,1,25,gestures/cat_POS.mp4,ta_l,i,S,cat,1,24,2.0485592,i,TRUE
EB12AY,1,26,gestures/dog_PL.mp4,pl_y,a,S,dog,1,25,2.6540625,e,FALSE
EB12AY,1,27,gestures/boy_PL.mp4,po_nt,i,S,boy,1,26,3.4721565,o,FALSE
EB12AY,1,28,gestures/dog_POS.mp4,to_th,o,S,dog,1,27,2.5067465,o,TRUE
EB12AY,1,29,gestures/boy_PL.mp4,w_ve,a,S,boy,1,28,1.6943371,e,FALSE
EB12AY,1,30,gestures/horse_POS.mp4,h_ad,e,S,horse,1,29,1.3490306,a,FALSE
EB12AY,1,31,gestures/car_PL.mp4,cr_sh,a,S,car,1,30,4.0558963,a,TRUE
EB12AY,1,32,gestures/baby_POS.mp4,t_ddy,e,S,baby,1,31,1.6495671,a,FALSE
EB12AY,1,33,gestures/boy_S.mp4,t-sh_rt,i,G,boy,1,32,3.0567706,a,FALSE
EB12AY,1,34,gestures/cat_S.mp4,n_se,o,G,cat,1,33,2.0140715,o,TRUE
EB12AY,1,35,gestures/boy_S.mp4,po_nt,i,G,boy,1,34,1.7739295,o,FALSE
EB12AY,1,36,gestures/frog_S.mp4,j_mp,u,G,frog,1,35,2.0312963,u,TRUE
EB12AY,1,37,gestures/car_S.mp4,m_ve,o,G,car,1,36,3.1725104,u,FALSE
EB12AY,1,38,gestures/baby_S.mp4,bl_nket,a,G,baby,1,37,4.588847,e,FALSE
EB12AY,1,39,gestures/cat_S.mp4,sl_ep,e,G,cat,1,38,2.2464643,i,FALSE
EB12AY,1,40,gestures/frog_S.mp4,list_n,e,G,frog,1,39,3.6993208,e,TRUE
EB12AY,1,41,gestures/baby_S.mp4,t_ddy,e,G,baby,1,40,4.7592926,e,TRUE
EB12AY,1,42,gestures/cat_S.mp4,lo_k,o,G,cat,1,41,1.5170926,o,TRUE
EB12AY,1,43,gestures/dog_S.mp4,to_th,o,G,dog,1,42,1.8225509,o,TRUE
EB12AY,1,44,gestures/horse_S.mp4,mo_th,u,G,horse,1,43,1.773878,o,FALSE
EB12AY,1,45,gestures/car_S.mp4,whe_l,e,G,car,1,44,2.2318604,e,TRUE
EB12AY,1,46,gestures/girl_S.mp4,ha_r,i,G,girl,1,45,2.1002624,i,TRUE
EB12AY,1,47,gestures/dog_S.mp4,n_ck,e,G,dog,1,46,5.715486,a,FALSE
EB12AY,1,48,gestures/cat_S.mp4,ta_l,i,G,cat,1,47,2.739741,i,TRUE
EB12AY,1,49,gestures/girl_S.mp4,wh_stle,i,G,girl,1,48,5.711815,e,FALSE
EB12AY,1,50,gestures/car_S.mp4,wind_w,o,G,car,1,49,1.9444783,o,TRUE
EB12AY,1,51,gestures/dog_S.mp4,b_rk,a,G,dog,1,50,2.9284024,a,TRUE
EB12AY,1,52,gestures/horse_S.mp4,w_lk,a,G,horse,1,51,4.3028855,i,FALSE
EB12AY,1,53,gestures/horse_S.mp4,k_ck,i,G,horse,1,52,3.5222316,i,TRUE
EB12AY,1,54,gestures/dog_S.mp4,pl_y,a,G,dog,1,53,1.6472721,a,TRUE
EB12AY,1,55,gestures/baby_S.mp4,sm_le,i,G,baby,1,54,1.4371073,i,TRUE
EB12AY,1,56,gestures/frog_S.mp4,fo_t,o,G,frog,1,55,1.6643293,o,TRUE
EB12AY,1,57,gestures/frog_S.mp4,tong_e,u,G,frog,1,56,2.901328,a,FALSE
EB12AY,1,58,gestures/horse_S.mp4,h_ad,e,G,horse,1,57,1.769216,a,FALSE
EB12AY,1,59,gestures/boy_S.mp4,w_ve,a,G,boy,1,58,2.5980299,i,FALSE
EB12AY,1,60,gestures/car_S.mp4,cr_sh,a,G,car,1,59,2.030652,a,TRUE
EB12AY,1,61,gestures/girl_S.mp4,h_g,u,G,girl,1,60,1.6138165,u,TRUE
EB12AY,1,62,gestures/girl_S.mp4,dr_ss,e,G,girl,1,61,2.1905565,e,TRUE
EB12AY,1,63,gestures/baby_S.mp4,cr_wl,a,G,baby,1,62,2.9104502,a,TRUE
EB12AY,1,64,gestures/boy_S.mp4,bo_k,o,G,boy,1,63,1.9262184,o,TRUE
EB12AY,2,1,gestures/boy_S.mp4,w_ve,a,G,boy,1,0,2.011337,a,TRUE
EB12AY,2,2,gestures/girl_S.mp4,h_g,u,G,girl,1,1,2.556327,a,FALSE
EB12AY,2,3,gestures/baby_S.mp4,sm_le,i,G,baby,1,2,2.2742193,i,TRUE
EB12AY,2,4,gestures/car_S.mp4,wind_w,o,G,car,1,3,3.6072185,o,TRUE
EB12AY,2,5,gestures/horse_S.mp4,h_ad,e,G,horse,1,4,4.684665,e,TRUE
EB12AY,2,6,gestures/girl_S.mp4,wh_stle,i,G,girl,1,5,5.1177197,e,FALSE
EB12AY,2,7,gestures/dog_S.mp4,n_ck,e,G,dog,1,6,2.5036278,a,FALSE
EB12AY,2,8,gestures/horse_S.mp4,mo_th,u,G,horse,1,7,3.0531476,a,FALSE
EB12AY,2,9,gestures/frog_S.mp4,j_mp,u,G,frog,1,8,1.8744231,u,TRUE
EB12AY,2,10,gestures/baby_S.mp4,cr_wl,a,G,baby,1,9,5.419077,a,TRUE
EB12AY,2,11,gestures/cat_S.mp4,n_se,o,G,cat,1,10,7.542108,a,FALSE
EB12AY,2,12,gestures/baby_S.mp4,t_ddy,e,G,baby,1,11,4.139893,a,FALSE
EB12AY,2,13,gestures/cat_S.mp4,lo_k,o,G,cat,1,12,2.0875623,o,TRUE
EB12AY,2,14,gestures/boy_S.mp4,t-sh_rt,i,G,boy,1,13,3.5583818,e,FALSE
EB12AY,2,15,gestures/dog_S.mp4,pl_y,a,G,dog,1,14,3.171386,e,FALSE
EB12AY,2,16,gestures/baby_S.mp4,bl_nket,a,G,baby,1,15,4.402103,a,TRUE
EB12AY,2,17,gestures/horse_S.mp4,w_lk,a,G,horse,1,16,6.0715156,a,TRUE
EB12AY,2,18,gestures/boy_S.mp4,po_nt,i,G,boy,1,17,3.464877,o,FALSE
EB12AY,2,19,gestures/boy_S.mp4,bo_k,o,G,boy,1,18,3.4234197,o,TRUE
EB12AY,2,20,gestures/cat_S.mp4,ta_l,i,G,cat,1,19,2.3725724,i,TRUE
EB12AY,2,21,gestures/dog_S.mp4,b_rk,a,G,dog,1,20,2.5984492,a,TRUE
EB12AY,2,22,gestures/cat_S.mp4,sl_ep,e,G,cat,1,21,3.1404333,i,FALSE
EB12AY,2,23,gestures/horse_S.mp4,k_ck,i,G,horse,1,22,3.4524236,i,TRUE
EB12AY,2,24,gestures/frog_S.mp4,fo_t,o,G,frog,1,23,1.6480328,o,TRUE
EB12AY,2,25,gestures/frog_S.mp4,list_n,e,G,frog,1,24,4.6387243,e,TRUE
EB12AY,2,26,gestures/car_S.mp4,cr_sh,a,G,car,1,25,4.509205,a,TRUE
EB12AY,2,27,gestures/car_S.mp4,m_ve,o,G,car,1,26,5.633381,i,FALSE
EB12AY,2,28,gestures/car_S.mp4,whe_l,e,G,car,1,27,2.5584292,i,FALSE
EB12AY,2,29,gestures/girl_S.mp4,dr_ss,e,G,girl,1,28,2.1327772,e,TRUE
EB12AY,2,30,gestures/girl_S.mp4,ha_r,i,G,girl,1,29,2.2103837,i,TRUE
EB12AY,2,31,gestures/frog_S.mp4,tong_e,u,G,frog,1,30,5.367036,i,FALSE
EB12AY,2,32,gestures/dog_S.mp4,to_th,o,G,dog,1,31,3.1886125,u,FALSE
EB12AY,2,33,gestures/horse_POS.mp4,mo_th,u,S,horse,1,32,1.4992487,o,FALSE
EB12AY,2,34,gestures/car_POS.mp4,whe_l,e,S,car,1,33,0.2699332,a,FALSE
EB12AY,2,35,gestures/girl_POS.mp4,dr_ss,e,S,girl,1,34,1.6143309,i,FALSE
EB12AY,2,36,gestures/horse_POS.mp4,h_ad,e,S,horse,1,35,2.6447577,e,TRUE
EB12AY,2,37,gestures/girl_POS.mp4,ha_r,i,S,girl,1,36,2.7594824,i,TRUE
EB12AY,2,38,gestures/baby_POS.mp4,bl_nket,a,S,baby,1,37,2.9054003,a,TRUE
EB12AY,2,39,gestures/boy_POS.mp4,t-sh_rt,i,S,boy,1,38,2.453903,e,FALSE
EB12AY,2,40,gestures/dog_POS.mp4,to_th,o,S,dog,1,39,2.2137606,u,FALSE
EB12AY,2,41,gestures/cat_PL.mp4,lo_k,o,S,cat,1,40,1.9944565,o,TRUE
EB12AY,2,42,gestures/dog_PL.mp4,b_rk,a,S,dog,1,41,1.9124957,a,TRUE
EB12AY,2,43,gestures/dog_PL.mp4,pl_y,a,S,dog,1,42,2.5635016,a,TRUE
EB12AY,2,44,gestures/cat_PL.mp4,sl_ep,e,S,cat,1,43,2.6972291,e,TRUE
EB12AY,2,45,gestures/dog_POS.mp4,n_ck,e,S,dog,1,44,1.7192168,a,FALSE
EB12AY,2,46,gestures/frog_PL.mp4,j_mp,u,S,frog,1,45,1.7540131,u,TRUE
EB12AY,2,47,gestures/girl_PL.mp4,wh_stle,i,S,girl,1,46,4.958215,e,FALSE
EB12AY,2,48,gestures/cat_POS.mp4,n_se,o,S,cat,1,47,2.421391,o,TRUE
EB12AY,2,49,gestures/boy_POS.mp4,bo_k,o,S,boy,1,48,3.1139457,o,TRUE
EB12AY,2,50,gestures/baby_PL.mp4,sm_le,i,S,baby,1,49,3.0221016,a,FALSE
EB12AY,2,51,gestures/boy_PL.mp4,po_nt,i,S,boy,1,50,3.2802513,o,FALSE
EB12AY,2,52,gestures/frog_PL.mp4,list_n,e,S,frog,1,51,2.9162066,e,TRUE
EB12AY,2,53,gestures/baby_PL.mp4,cr_wl,a,S,baby,1,52,2.3555417,a,TRUE
EB12AY,2,54,gestures/horse_PL.mp4,k_ck,i,S,horse,1,53,3.2650867,a,FALSE
EB12AY,2,55,gestures/horse_PL.mp4,w_lk,a,S,horse,1,54,2.71561,a,TRUE
EB12AY,2,56,gestures/baby_POS.mp4,t_ddy,e,S,baby,1,55,1.2311034,a,FALSE
EB12AY,2,57,gestures/car_PL.mp4,cr_sh,a,S,car,1,56,2.3351388,a,TRUE
EB12AY,2,58,gestures/frog_POS.mp4,tong_e,u,S,frog,1,57,9.229968,a,FALSE
EB12AY,2,59,gestures/car_POS.mp4,wind_w,o,S,car,1,58,3.065969,o,TRUE
EB12AY,2,60,gestures/boy_PL.mp4,w_ve,a,S,boy,1,59,1.8750544,a,TRUE
EB12AY,2,61,gestures/cat_POS.mp4,ta_l,i,S,cat,1,60,2.0316572,i,TRUE
EB12AY,2,62,gestures/car_PL.mp4,m_ve,o,S,car,1,61,8.10709,i,FALSE
EB12AY,2,63,gestures/frog_POS.mp4,fo_t,o,S,frog,1,62,1.7051274,o,TRUE
EB12AY,2,64,gestures/girl_PL.mp4,h_g,u,S,girl,1,63,2.219122,a,FALSE
ED21AD,1,1,gestures/baby_PL.mp4,cr_wl,a,S,baby,1,0,4.844997,e,FALSE
ED21AD,1,2,gestures/car_PL.mp4,cr_sh,a,S,car,1,1,1.8067151,a,TRUE
ED21AD,1,3,gestures/girl_PL.mp4,h_g,u,S,girl,1,2,2.123759,i,FALSE
ED21AD,1,4,gestures/horse_POS.mp4,h_ad,e,S,horse,1,3,3.481558,e,TRUE
ED21AD,1,5,gestures/boy_PL.mp4,w_ve,a,S,boy,1,4,3.6780632,e,FALSE
ED21AD,1,6,gestures/frog_PL.mp4,j_mp,u,S,frog,1,5,1.8550675,u,TRUE
ED21AD,1,7,gestures/dog_POS.mp4,to_th,o,S,dog,1,6,2.1074815,a,FALSE
ED21AD,1,8,gestures/cat_POS.mp4,n_se,o,S,cat,1,7,2.3195918,a,FALSE
ED21AD,1,9,gestures/baby_PL.mp4,sm_le,i,S,baby,1,8,3.086301,e,FALSE
ED21AD,1,10,gestures/dog_POS.mp4,n_ck,e,S,dog,1,9,1.7054665,i,FALSE
ED21AD,1,11,gestures/horse_PL.mp4,k_ck,i,S,horse,1,10,2.1363897,i,TRUE
ED21AD,1,12,gestures/frog_POS.mp4,tong_e,u,S,frog,1,11,4.0039797,a,FALSE
ED21AD,1,13,gestures/frog_POS.mp4,fo_t,o,S,frog,1,12,2.3147502,o,TRUE
ED21AD,1,14,gestures/cat_PL.mp4,sl_ep,e,S,cat,1,13,1.7239462,e,TRUE
ED21AD,1,15,gestures/car_POS.mp4,whe_l,e,S,car,1,14,1.7957375,a,FALSE
ED21AD,1,16,gestures/cat_PL.mp4,lo_k,o,S,cat,1,15,1.4991904,o,TRUE
ED21AD,1,17,gestures/baby_POS.mp4,bl_nket,a,S,baby,1,16,1.8652648,e,FALSE
ED21AD,1,18,gestures/girl_PL.mp4,wh_stle,i,S,girl,1,17,1.6073697,a,FALSE
ED21AD,1,19,gestures/dog_PL.mp4,b_rk,a,S,dog,1,18,1.823228,e,FALSE
ED21AD,1,20,gestures/cat_POS.mp4,ta_l,i,S,cat,1,19,2.0470116,a,FALSE
ED21AD,1,21,gestures/horse_POS.mp4,mo_th,u,S,horse,1,20,3.382431,u,TRUE
ED21AD,1,22,gestures/car_POS.mp4,wind_w,o,S,car,1,21,4.997339,a,FALSE
ED21AD,1,23,gestures/girl_POS.mp4,ha_r,i,S,girl,1,22,1.8314086,e,FALSE
ED21AD,1,24,gestures/girl_POS.mp4,dr_ss,e,S,girl,1,23,2.3222883,e,TRUE
ED21AD,1,25,gestures/frog_PL.mp4,list_n,e,S,frog,1,24,4.5824785,a,FALSE
ED21AD,1,26,gestures/boy_POS.mp4,bo_k,o,S,boy,1,25,1.3620802,o,TRUE
ED21AD,1,27,gestures/car_PL.mp4,m_ve,o,S,car,1,26,2.766122,o,TRUE
ED21AD,1,28,gestures/horse_PL.mp4,w_lk,a,S,horse,1,27,2.7987893,i,FALSE
ED21AD,1,29,gestures/boy_POS.mp4,t-sh_rt,i,S,boy,1,28,2.5982082,e,FALSE
ED21AD,1,30,gestures/dog_PL.mp4,pl_y,a,S,dog,1,29,1.6342542,a,TRUE
ED21AD,1,31,gestures/baby_POS.mp4,t_ddy,e,S,baby,1,30,1.9800115,a,FALSE
ED21AD,1,32,gestures/boy_PL.mp4,po_nt,i,S,boy,1,31,2.3355873,o,FALSE
ED21AD,1,33,gestures/girl_S.mp4,dr_ss,e,G,girl,1,32,1.7275789,a,FALSE
ED21AD,1,34,gestures/boy_S.mp4,w_ve,a,G,boy,1,33,2.4109902,o,FALSE
ED21AD,1,35,gestures/cat_S.mp4,n_se,o,G,cat,1,34,2.172532,o,TRUE
ED21AD,1,36,gestures/frog_S.mp4,list_n,e,G,frog,1,35,2.1384686999999998,e,TRUE
ED21AD,1,37,gestures/dog_S.mp4,to_th,o,G,dog,1,36,2.8154655,o,TRUE
ED21AD,1,38,gestures/horse_S.mp4,k_ck,i,G,horse,1,37,1.8793097,i,TRUE
ED21AD,1,39,gestures/car_S.mp4,cr_sh,a,G,car,1,38,2.6199644,a,TRUE
ED21AD,1,40,gestures/cat_S.mp4,sl_ep,e,G,cat,1,39,2.0417738,e,TRUE
ED21AD,1,41,gestures/boy_S.mp4,t-sh_rt,i,G,boy,1,40,2.6329875,e,FALSE
ED21AD,1,42,gestures/girl_S.mp4,h_g,u,G,girl,1,41,2.4179013,u,TRUE
ED21AD,1,43,gestures/horse_S.mp4,w_lk,a,G,horse,1,42,2.6506696,a,TRUE
ED21AD,1,44,gestures/baby_S.mp4,cr_wl,a,G,baby,1,43,2.5764394,a,TRUE
ED21AD,1,45,gestures/boy_S.mp4,po_nt,i,G,boy,1,44,1.8881334,o,FALSE
ED21AD,1,46,gestures/girl_S.mp4,wh_stle,i,G,girl,1,45,2.1768548,e,FALSE
ED21AD,1,47,gestures/dog_S.mp4,n_ck,e,G,dog,1,46,1.5654726,i,FALSE
ED21AD,1,48,gestures/frog_S.mp4,fo_t,o,G,frog,1,47,1.9557663,o,TRUE
ED21AD,1,49,gestures/car_S.mp4,m_ve,o,G,car,1,48,2.2464395,u,FALSE
ED21AD,1,50,gestures/dog_S.mp4,pl_y,a,G,dog,1,49,1.455143,a,TRUE
ED21AD,1,51,gestures/baby_S.mp4,sm_le,i,G,baby,1,50,1.8171927,i,TRUE
ED21AD,1,52,gestures/dog_S.mp4,b_rk,a,G,dog,1,51,1.6367005,a,TRUE
ED21AD,1,53,gestures/girl_S.mp4,ha_r,i,G,girl,1,52,2.2524047,e,FALSE
ED21AD,1,54,gestures/cat_S.mp4,ta_l,i,G,cat,1,53,1.9813557,e,FALSE
ED21AD,1,55,gestures/frog_S.mp4,j_mp,u,G,frog,1,54,1.9150788,u,TRUE
ED21AD,1,56,gestures/car_S.mp4,wind_w,o,G,car,1,55,1.9737492,a,FALSE
ED21AD,1,57,gestures/horse_S.mp4,h_ad,e,G,horse,1,56,2.3924077,e,TRUE
ED21AD,1,58,gestures/cat_S.mp4,lo_k,o,G,cat,1,57,1.7821652,o,TRUE
ED21AD,1,59,gestures/baby_S.mp4,t_ddy,e,G,baby,1,58,1.6028852,e,TRUE
ED21AD,1,60,gestures/baby_S.mp4,bl_nket,a,G,baby,1,59,1.6703471,a,TRUE
ED21AD,1,61,gestures/boy_S.mp4,bo_k,o,G,boy,1,60,1.6231583,o,TRUE
ED21AD,1,62,gestures/frog_S.mp4,tong_e,u,G,frog,1,61,1.8638289,a,FALSE
ED21AD,1,63,gestures/horse_S.mp4,mo_th,u,G,horse,1,62,2.2671733,u,TRUE
ED21AD,1,64,gestures/car_S.mp4,whe_l,e,G,car,1,63,1.9196799,a,FALSE
ED21AD,2,1,gestures/baby_S.mp4,t_ddy,e,G,baby,1,0,2.0166934,e,TRUE
ED21AD,2,2,gestures/cat_S.mp4,sl_ep,e,G,cat,1,1,1.7275203,e,TRUE
ED21AD,2,3,gestures/frog_S.mp4,fo_t,o,G,frog,1,2,1.7227688,o,TRUE
ED21AD,2,4,gestures/dog_S.mp4,b_rk,a,G,dog,1,3,1.9694952,e,FALSE
ED21AD,2,5,gestures/cat_S.mp4,n_se,o,G,cat,1,4,3.4428847,a,FALSE
ED21AD,2,6,gestures/frog_S.mp4,list_n,e,G,frog,1,5,4.944036,o,FALSE
ED21AD,2,7,gestures/car_S.mp4,whe_l,e,G,car,1,6,1.8606913,e,TRUE
ED21AD,2,8,gestures/horse_S.mp4,h_ad,e,G,horse,1,7,1.7916521,e,TRUE
ED21AD,2,9,gestures/car_S.mp4,cr_sh,a,G,car,1,8,2.7680788,a,TRUE
ED21AD,2,10,gestures/dog_S.mp4,n_ck,e,G,dog,1,9,2.8740902,i,FALSE
ED21AD,2,11,gestures/girl_S.mp4,wh_stle,i,G,girl,1,10,3.7660687,e,FALSE
ED21AD,2,12,gestures/car_S.mp4,m_ve,o,G,car,1,11,3.3904781,o,TRUE
ED21AD,2,13,gestures/baby_S.mp4,cr_wl,a,G,baby,1,12,1.8733772,a,TRUE
ED21AD,2,14,gestures/girl_S.mp4,h_g,u,G,girl,1,13,1.7716335,i,FALSE
ED21AD,2,15,gestures/car_S.mp4,wind_w,o,G,car,1,14,6.396072,i,FALSE
ED21AD,2,16,gestures/cat_S.mp4,lo_k,o,G,cat,1,15,2.1689498,o,TRUE
ED21AD,2,17,gestures/frog_S.mp4,tong_e,u,G,frog,1,16,3.029109,a,FALSE
ED21AD,2,18,gestures/boy_S.mp4,po_nt,i,G,boy,1,17,4.1337476,i,TRUE
ED21AD,2,19,gestures/horse_S.mp4,mo_th,u,G,horse,1,18,6.3940306,o,FALSE
ED21AD,2,20,gestures/frog_S.mp4,j_mp,u,G,frog,1,19,1.8424772,u,TRUE
ED21AD,2,21,gestures/girl_S.mp4,dr_ss,e,G,girl,1,20,2.0142698,e,TRUE
ED21AD,2,22,gestures/boy_S.mp4,w_ve,a,G,boy,1,21,2.7721858,a,TRUE
ED21AD,2,23,gestures/boy_S.mp4,bo_k,o,G,boy,1,22,1.6263838,o,TRUE
ED21AD,2,24,gestures/dog_S.mp4,to_th,o,G,dog,1,23,1.9699098,o,TRUE
ED21AD,2,25,gestures/horse_S.mp4,k_ck,i,G,horse,1,24,1.8031359,i,TRUE
ED21AD,2,26,gestures/dog_S.mp4,pl_y,a,G,dog,1,25,1.7854433,a,TRUE
ED21AD,2,27,gestures/horse_S.mp4,w_lk,a,G,horse,1,26,1.8153613,i,FALSE
ED21AD,2,28,gestures/baby_S.mp4,sm_le,i,G,baby,1,27,2.0808957,i,TRUE
ED21AD,2,29,gestures/girl_S.mp4,ha_r,i,G,girl,1,28,1.6368651,e,FALSE
ED21AD,2,30,gestures/baby_S.mp4,bl_nket,a,G,baby,1,29,1.6982143,i,FALSE
ED21AD,2,31,gestures/boy_S.mp4,t-sh_rt,i,G,boy,1,30,2.2295024,i,TRUE
ED21AD,2,32,gestures/cat_S.mp4,ta_l,i,G,cat,1,31,1.5516273,e,FALSE
ED21AD,2,33,gestures/dog_POS.mp4,to_th,o,S,dog,1,32,1.5706733,o,TRUE
ED21AD,2,34,gestures/frog_POS.mp4,tong_e,u,S,frog,1,33,2.2282786,i,FALSE
ED21AD,2,35,gestures/horse_PL.mp4,k_ck,i,S,horse,1,34,1.3099582,i,TRUE
ED21AD,2,36,gestures/car_PL.mp4,cr_sh,a,S,car,1,35,3.5459986,a,TRUE
ED21AD,2,37,gestures/boy_PL.mp4,po_nt,i,S,boy,1,36,1.4746137,o,FALSE
ED21AD,2,38,gestures/frog_POS.mp4,fo_t,o,S,frog,1,37,1.1597677,o,TRUE
ED21AD,2,39,gestures/car_POS.mp4,wind_w,o,S,car,1,38,5.7344246,i,FALSE
ED21AD,2,40,gestures/boy_POS.mp4,t-sh_rt,i,S,boy,1,39,1.3442439,i,TRUE
ED21AD,2,41,gestures/girl_PL.mp4,wh_stle,i,S,girl,1,40,1.5407053,i,TRUE
ED21AD,2,42,gestures/frog_PL.mp4,j_mp,u,S,frog,1,41,1.5961547,u,TRUE
ED21AD,2,43,gestures/cat_PL.mp4,sl_ep,e,S,cat,1,42,2.0332186,e,TRUE
ED21AD,2,44,gestures/car_POS.mp4,whe_l,e,S,car,1,43,1.6772141,e,TRUE
ED21AD,2,45,gestures/horse_POS.mp4,mo_th,u,S,horse,1,44,1.5340682,u,TRUE
ED21AD,2,46,gestures/baby_PL.mp4,sm_le,i,S,baby,1,45,2.0260916,i,TRUE
ED21AD,2,47,gestures/cat_PL.mp4,lo_k,o,S,cat,1,46,1.3119807000000001,o,TRUE
ED21AD,2,48,gestures/baby_POS.mp4,bl_nket,a,S,baby,1,47,2.9364102,e,FALSE
ED21AD,2,49,gestures/cat_POS.mp4,n_se,o,S,cat,1,48,2.57261,o,TRUE
ED21AD,2,50,gestures/dog_PL.mp4,b_rk,a,S,dog,1,49,2.1721387,e,FALSE
ED21AD,2,51,gestures/cat_POS.mp4,ta_l,i,S,cat,1,50,1.5965178,i,TRUE
ED21AD,2,52,gestures/girl_POS.mp4,ha_r,i,S,girl,1,51,1.8495358,e,FALSE
ED21AD,2,53,gestures/boy_POS.mp4,bo_k,o,S,boy,1,52,1.2156852,o,TRUE
ED21AD,2,54,gestures/girl_POS.mp4,dr_ss,e,S,girl,1,53,2.5687683,e,TRUE
ED21AD,2,55,gestures/car_PL.mp4,m_ve,o,S,car,1,54,1.8893814,o,TRUE
ED21AD,2,56,gestures/baby_POS.mp4,t_ddy,e,S,baby,1,55,1.8823385,e,TRUE
ED21AD,2,57,gestures/horse_POS.mp4,h_ad,e,S,horse,1,56,2.3985088,e,TRUE
ED21AD,2,58,gestures/girl_PL.mp4,h_g,u,S,girl,1,57,1.7522869,u,TRUE
ED21AD,2,59,gestures/frog_PL.mp4,list_n,e,S,frog,1,58,3.1147833,i,FALSE
ED21AD,2,60,gestures/dog_POS.mp4,n_ck,e,S,dog,1,59,1.9240658,i,FALSE
ED21AD,2,61,gestures/boy_PL.mp4,w_ve,a,S,boy,1,60,2.773687,u,FALSE
ED21AD,2,62,gestures/dog_PL.mp4,pl_y,a,S,dog,1,61,1.7456276,a,TRUE
ED21AD,2,63,gestures/horse_PL.mp4,w_lk,a,S,horse,1,62,1.6547729,a,TRUE
ED21AD,2,64,gestures/baby_PL.mp4,cr_wl,a,S,baby,1,63,2.2204528,u,FALSE
HA28TH,1,1,gestures/boy_S.mp4,po_nt,i,G,boy,1,0,3.3093946,u,FALSE
HA28TH,1,2,gestures/cat_S.mp4,n_se,o,G,cat,1,1,4.1063876,o,TRUE
HA28TH,1,3,gestures/girl_S.mp4,h_g,u,G,girl,1,2,3.1396668,a,FALSE
HA28TH,1,4,gestures/frog_S.mp4,tong_e,u,G,frog,1,3,3.8783643,u,TRUE
HA28TH,1,5,gestures/girl_S.mp4,wh_stle,i,G,girl,1,4,3.0860803,i,TRUE
HA28TH,1,6,gestures/boy_S.mp4,bo_k,o,G,boy,1,5,5.755568,o,TRUE
HA28TH,1,7,gestures/horse_S.mp4,k_ck,i,G,horse,1,6,3.6780884,a,FALSE
HA28TH,1,8,gestures/baby_S.mp4,bl_nket,a,G,baby,1,7,5.560912,a,TRUE
HA28TH,1,9,gestures/frog_S.mp4,fo_t,o,G,frog,1,8,7.273582,o,TRUE
HA28TH,1,10,gestures/baby_S.mp4,cr_wl,a,G,baby,1,9,3.090347,u,FALSE
HA28TH,1,11,gestures/cat_S.mp4,ta_l,i,G,cat,1,10,4.04707,a,FALSE
HA28TH,1,12,gestures/dog_S.mp4,pl_y,a,G,dog,1,11,2.2923467,a,TRUE
HA28TH,1,13,gestures/horse_S.mp4,h_ad,e,G,horse,1,12,5.441678,a,FALSE
HA28TH,1,14,gestures/dog_S.mp4,n_ck,e,G,dog,1,13,2.2378228,a,FALSE
HA28TH,1,15,gestures/frog_S.mp4,list_n,e,G,frog,1,14,3.8557584,i,FALSE
HA28TH,1,16,gestures/car_S.mp4,wind_w,o,G,car,1,15,2.6220531,o,TRUE
HA28TH,1,17,gestures/girl_S.mp4,ha_r,i,G,girl,1,16,4.386045,i,TRUE
HA28TH,1,18,gestures/horse_S.mp4,mo_th,u,G,horse,1,17,3.4142926,u,TRUE
HA28TH,1,19,gestures/cat_S.mp4,sl_ep,e,G,cat,1,18,3.926285,e,TRUE
HA28TH,1,20,gestures/baby_S.mp4,sm_le,i,G,baby,1,19,3.8615158,o,FALSE
HA28TH,1,21,gestures/car_S.mp4,whe_l,e,G,car,1,20,3.5820537,e,TRUE
HA28TH,1,22,gestures/cat_S.mp4,lo_k,o,G,cat,1,21,2.6760411,o,TRUE
HA28TH,1,23,gestures/boy_S.mp4,w_ve,a,G,boy,1,22,3.435225,e,FALSE
HA28TH,1,24,gestures/girl_S.mp4,dr_ss,e,G,girl,1,23,2.8356102,i,FALSE
HA28TH,1,25,gestures/boy_S.mp4,t-sh_rt,i,G,boy,1,24,4.399935,o,FALSE
HA28TH,1,26,gestures/dog_S.mp4,to_th,o,G,dog,1,25,4.082907,o,TRUE
HA28TH,1,27,gestures/car_S.mp4,cr_sh,a,G,car,1,26,3.8192098,e,FALSE
HA28TH,1,28,gestures/frog_S.mp4,j_mp,u,G,frog,1,27,2.4727688,u,TRUE
HA28TH,1,29,gestures/baby_S.mp4,t_ddy,e,G,baby,1,28,4.7135296,i,FALSE
HA28TH,1,30,gestures/dog_S.mp4,b_rk,a,G,dog,1,29,5.083636,u,FALSE
HA28TH,1,31,gestures/horse_S.mp4,w_lk,a,G,horse,1,30,5.0302987,e,FALSE
HA28TH,1,32,gestures/car_S.mp4,m_ve,o,G,car,1,31,2.6635609,u,FALSE
HA28TH,1,33,gestures/horse_PL.mp4,w_lk,a,S,horse,1,32,3.768625,e,FALSE
HA28TH,1,34,gestures/baby_PL.mp4,cr_wl,a,S,baby,1,33,3.3039005,a,TRUE
HA28TH,1,35,gestures/cat_PL.mp4,sl_ep,e,S,cat,1,34,2.8864841,e,TRUE
HA28TH,1,36,gestures/horse_POS.mp4,h_ad,e,S,horse,1,35,8.185057,a,FALSE
HA28TH,1,37,gestures/cat_POS.mp4,n_se,o,S,cat,1,36,2.5775564,o,TRUE
HA28TH,1,38,gestures/frog_POS.mp4,tong_e,u,S,frog,1,37,3.7692478,u,TRUE
HA28TH,1,39,gestures/horse_PL.mp4,k_ck,i,S,horse,1,38,6.3967333,u,FALSE
HA28TH,1,40,gestures/girl_POS.mp4,dr_ss,e,S,girl,1,39,2.9807389,e,TRUE
HA28TH,1,41,gestures/car_POS.mp4,wind_w,o,S,car,1,40,2.0456908,o,TRUE
HA28TH,1,42,gestures/horse_POS.mp4,mo_th,u,S,horse,1,41,5.36369,u,TRUE
HA28TH,1,43,gestures/car_PL.mp4,cr_sh,a,S,car,1,42,3.647749,o,FALSE
HA28TH,1,44,gestures/boy_PL.mp4,w_ve,a,S,boy,1,43,2.2234564,o,FALSE
HA28TH,1,45,gestures/car_POS.mp4,whe_l,e,S,car,1,44,3.3606126,e,TRUE
HA28TH,1,46,gestures/frog_PL.mp4,j_mp,u,S,frog,1,45,4.3664355,u,TRUE
HA28TH,1,47,gestures/boy_PL.mp4,po_nt,i,S,boy,1,46,4.110798,u,FALSE
HA28TH,1,48,gestures/girl_PL.mp4,wh_stle,i,S,girl,1,47,3.5179863,i,TRUE
HA28TH,1,49,gestures/dog_POS.mp4,to_th,o,S,dog,1,48,2.650003,u,FALSE
HA28TH,1,50,gestures/baby_POS.mp4,t_ddy,e,S,baby,1,49,2.5502012,a,FALSE
HA28TH,1,51,gestures/dog_PL.mp4,pl_y,a,S,dog,1,50,2.6132646,a,TRUE
HA28TH,1,52,gestures/girl_PL.mp4,h_g,u,S,girl,1,51,2.7128603,i,FALSE
HA28TH,1,53,gestures/cat_POS.mp4,ta_l,i,S,cat,1,52,2.4674685,i,TRUE
HA28TH,1,54,gestures/boy_POS.mp4,bo_k,o,S,boy,1,53,2.111155,o,TRUE
HA28TH,1,55,gestures/boy_POS.mp4,t-sh_rt,i,S,boy,1,54,3.6780477,o,FALSE
HA28TH,1,56,gestures/girl_POS.mp4,ha_r,i,S,girl,1,55,4.0877285,i,TRUE
HA28TH,1,57,gestures/cat_PL.mp4,lo_k,o,S,cat,1,56,2.7426689,o,TRUE
HA28TH,1,58,gestures/dog_POS.mp4,n_ck,e,S,dog,1,57,2.2799973,a,FALSE
HA28TH,1,59,gestures/car_PL.mp4,m_ve,o,S,car,1,58,2.354978,u,FALSE
HA28TH,1,60,gestures/baby_PL.mp4,sm_le,i,S,baby,1,59,2.0897706,o,FALSE
HA28TH,1,61,gestures/frog_PL.mp4,list_n,e,S,frog,1,60,2.6899083,e,TRUE
HA28TH,1,62,gestures/frog_POS.mp4,fo_t,o,S,frog,1,61,6.985043,o,TRUE
HA28TH,1,63,gestures/baby_POS.mp4,bl_nket,a,S,baby,1,62,2.8489404,e,FALSE
HA28TH,1,64,gestures/dog_PL.mp4,b_rk,a,S,dog,1,63,3.5891154,a,TRUE
HA28TH,2,1,gestures/baby_POS.mp4,bl_nket,a,S,baby,1,0,4.334442,e,FALSE
HA28TH,2,2,gestures/boy_PL.mp4,po_nt,i,S,boy,1,1,3.6860323,o,FALSE
HA28TH,2,3,gestures/boy_PL.mp4,w_ve,a,S,boy,1,2,4.028805,i,FALSE
HA28TH,2,4,gestures/girl_POS.mp4,dr_ss,e,S,girl,1,3,3.5447028,e,TRUE
HA28TH,2,5,gestures/dog_PL.mp4,pl_y,a,S,dog,1,4,4.7595797,e,FALSE
HA28TH,2,6,gestures/horse_PL.mp4,w_lk,a,S,horse,1,5,4.6868377,e,FALSE
HA28TH,2,7,gestures/frog_POS.mp4,fo_t,o,S,frog,1,6,2.9468155,o,TRUE
HA28TH,2,8,gestures/baby_POS.mp4,t_ddy,e,S,baby,1,7,2.616046,e,TRUE
HA28TH,2,9,gestures/horse_PL.mp4,k_ck,i,S,horse,1,8,4.068606,e,FALSE
HA28TH,2,10,gestures/cat_PL.mp4,sl_ep,e,S,cat,1,9,3.327498,e,TRUE
HA28TH,2,11,gestures/cat_PL.mp4,lo_k,o,S,cat,1,10,2.1278315,o,TRUE
HA28TH,2,12,gestures/car_POS.mp4,whe_l,e,S,car,1,11,3.3062472,e,TRUE
HA28TH,2,13,gestures/dog_POS.mp4,to_th,o,S,dog,1,12,3.97466,o,TRUE
HA28TH,2,14,gestures/car_PL.mp4,m_ve,o,S,car,1,13,2.6856954,o,TRUE
HA28TH,2,15,gestures/frog_PL.mp4,j_mp,u,S,frog,1,14,3.0369556,u,TRUE
HA28TH,2,16,gestures/girl_PL.mp4,wh_stle,i,S,girl,1,15,4.0473146,i,TRUE
HA28TH,2,17,gestures/horse_POS.mp4,mo_th,u,S,horse,1,16,9.590735,u,TRUE
HA28TH,2,18,gestures/dog_POS.mp4,n_ck,e,S,dog,1,17,2.4928918,e,TRUE
HA28TH,2,19,gestures/boy_POS.mp4,t-sh_rt,i,S,boy,1,18,4.818697,o,FALSE
HA28TH,2,20,gestures/cat_POS.mp4,ta_l,i,S,cat,1,19,6.8707876,i,TRUE
HA28TH,2,21,gestures/baby_PL.mp4,cr_wl,a,S,baby,1,20,2.7424507,o,FALSE
HA28TH,2,22,gestures/frog_PL.mp4,list_n,e,S,frog,1,21,3.0115223,e,TRUE
HA28TH,2,23,gestures/baby_PL.mp4,sm_le,i,S,baby,1,22,3.1214695,o,FALSE
HA28TH,2,24,gestures/boy_POS.mp4,bo_k,o,S,boy,1,23,2.3650277,o,TRUE
HA28TH,2,25,gestures/horse_POS.mp4,h_ad,e,S,horse,1,24,4.070968,e,TRUE
HA28TH,2,26,gestures/car_PL.mp4,cr_sh,a,S,car,1,25,2.5891428,o,FALSE
HA28TH,2,27,gestures/frog_POS.mp4,tong_e,u,S,frog,1,26,8.059126,o,FALSE
HA28TH,2,28,gestures/car_POS.mp4,wind_w,o,S,car,1,27,2.206208,o,TRUE
HA28TH,2,29,gestures/girl_PL.mp4,h_g,u,S,girl,1,28,2.3992705,a,FALSE
HA28TH,2,30,gestures/cat_POS.mp4,n_se,o,S,cat,1,29,3.4502285,o,TRUE
HA28TH,2,31,gestures/dog_PL.mp4,b_rk,a,S,dog,1,30,5.142171,a,TRUE
HA28TH,2,32,gestures/girl_POS.mp4,ha_r,i,S,girl,1,31,4.7107186,a,FALSE
HA28TH,2,1,gestures/baby_S.mp4,cr_wl,a,G,baby,1,0,4.958897,o,FALSE
HA28TH,2,2,gestures/car_S.mp4,m_ve,o,G,car,1,1,5.250269,u,FALSE
HA28TH,2,3,gestures/horse_S.mp4,k_ck,i,G,horse,1,2,1.9494292,i,TRUE
HA28TH,2,4,gestures/girl_S.mp4,dr_ss,e,G,girl,1,3,2.465293,e,TRUE
HA28TH,2,5,gestures/baby_S.mp4,bl_nket,a,G,baby,1,4,3.5089643,e,FALSE
HA28TH,2,6,gestures/boy_S.mp4,po_nt,i,G,boy,1,5,2.9275444,o,FALSE
HA28TH,2,7,gestures/boy_S.mp4,w_ve,a,G,boy,1,6,4.307173,o,FALSE
HA28TH,2,8,gestures/dog_S.mp4,to_th,o,G,dog,1,7,5.3934827,u,FALSE
HA28TH,2,9,gestures/baby_S.mp4,t_ddy,e,G,baby,1,8,2.817304,e,TRUE
HA28TH,2,10,gestures/boy_S.mp4,t-sh_rt,i,G,boy,1,9,2.491548,i,TRUE
HA28TH,2,11,gestures/frog_S.mp4,j_mp,u,G,frog,1,10,3.3385694,u,TRUE
HA28TH,2,12,gestures/car_S.mp4,wind_w,o,G,car,1,11,2.3520617,o,TRUE
HA28TH,2,13,gestures/dog_S.mp4,n_ck,e,G,dog,1,12,2.2772176,e,TRUE
HA28TH,2,14,gestures/dog_S.mp4,b_rk,a,G,dog,1,13,3.3061,a,TRUE
HA28TH,2,15,gestures/frog_S.mp4,fo_t,o,G,frog,1,14,3.7349248,o,TRUE
HA28TH,2,16,gestures/baby_S.mp4,sm_le,i,G,baby,1,15,3.9861417,a,FALSE
HA28TH,2,17,gestures/cat_S.mp4,lo_k,o,G,cat,1,16,2.0135238,o,TRUE
HA28TH,2,18,gestures/girl_S.mp4,wh_stle,i,G,girl,1,17,4.2565923,i,TRUE
HA28TH,2,19,gestures/dog_S.mp4,pl_y,a,G,dog,1,18,2.3309624,a,TRUE
HA28TH,2,20,gestures/cat_S.mp4,sl_ep,e,G,cat,1,19,3.022457,i,FALSE
HA28TH,2,21,gestures/car_S.mp4,whe_l,e,G,car,1,20,4.4348526,e,TRUE
HA28TH,2,22,gestures/girl_S.mp4,ha_r,i,G,girl,1,21,2.572025,i,TRUE
HA28TH,2,23,gestures/cat_S.mp4,n_se,o,G,cat,1,22,1.4812932,o,TRUE
HA28TH,2,24,gestures/horse_S.mp4,mo_th,u,G,horse,1,23,1.8662163,o,FALSE
HA28TH,2,25,gestures/horse_S.mp4,w_lk,a,G,horse,1,24,3.2885022,a,TRUE
HA28TH,2,26,gestures/cat_S.mp4,ta_l,i,G,cat,1,25,5.380996,i,TRUE
HA28TH,2,27,gestures/frog_S.mp4,list_n,e,G,frog,1,26,3.48506,e,TRUE
HA28TH,2,28,gestures/frog_S.mp4,tong_e,u,G,frog,1,27,2.7053041,u,TRUE
HA28TH,2,29,gestures/car_S.mp4,cr_sh,a,G,car,1,28,3.142765,o,FALSE
HA28TH,2,30,gestures/boy_S.mp4,bo_k,o,G,boy,1,29,1.5996913,o,TRUE
HA28TH,2,31,gestures/girl_S.mp4,h_g,u,G,girl,1,30,5.929335,a,FALSE
HA28TH,2,32,gestures/horse_S.mp4,h_ad,e,G,horse,1,31,3.0529704,a,FALSE
HE30DI,1,1,gestures/boy_PL.mp4,po_nt,i,S,boy,1,0,2.5003307,u,FALSE
HE30DI,1,2,gestures/dog_POS.mp4,to_th,o,S,dog,1,1,4.843671,u,FALSE
HE30DI,1,3,gestures/girl_POS.mp4,ha_r,i,S,girl,1,2,3.374557,i,TRUE
HE30DI,1,4,gestures/horse_PL.mp4,k_ck,i,S,horse,1,3,2.303645,i,TRUE
HE30DI,1,5,gestures/girl_PL.mp4,wh_stle,i,S,girl,1,4,4.123637,i,TRUE
HE30DI,1,6,gestures/car_POS.mp4,wind_w,o,S,car,1,5,3.384537,o,TRUE
HE30DI,1,7,gestures/baby_PL.mp4,sm_le,i,S,baby,1,6,2.6042438,i,TRUE
HE30DI,1,8,gestures/cat_PL.mp4,lo_k,o,S,cat,1,7,1.5516545,o,TRUE
HE30DI,1,9,gestures/boy_POS.mp4,t-sh_rt,i,S,boy,1,8,2.217945,i,TRUE
HE30DI,1,10,gestures/car_POS.mp4,whe_l,e,S,car,1,9,4.404803,e,TRUE
HE30DI,1,11,gestures/dog_POS.mp4,n_ck,e,S,dog,1,10,2.9243808,e,TRUE
HE30DI,1,12,gestures/frog_POS.mp4,tong_e,u,S,frog,1,11,10.224715,e,FALSE
HE30DI,1,13,gestures/cat_POS.mp4,ta_l,i,S,cat,1,12,1.555561,i,TRUE
HE30DI,1,14,gestures/frog_PL.mp4,list_n,e,S,frog,1,13,3.4694834,e,TRUE
HE30DI,1,15,gestures/horse_POS.mp4,h_ad,e,S,horse,1,14,2.4751961,e,TRUE
HE30DI,1,16,gestures/baby_POS.mp4,t_ddy,e,S,baby,1,15,1.9914024,e,TRUE
HE30DI,1,17,gestures/car_PL.mp4,m_ve,o,S,car,1,16,1.9129683,o,TRUE
HE30DI,1,18,gestures/dog_PL.mp4,pl_y,a,S,dog,1,17,2.0388577,a,TRUE
HE30DI,1,19,gestures/baby_PL.mp4,cr_wl,a,S,baby,1,18,2.923544,e,FALSE
HE30DI,1,20,gestures/girl_POS.mp4,dr_ss,e,S,girl,1,19,2.5573542,e,TRUE
HE30DI,1,21,gestures/horse_POS.mp4,mo_th,u,S,horse,1,20,2.9566936,u,TRUE
HE30DI,1,22,gestures/baby_POS.mp4,bl_nket,a,S,baby,1,21,2.3111753,a,TRUE
HE30DI,1,23,gestures/boy_POS.mp4,bo_k,o,S,boy,1,22,1.5308714,o,TRUE
HE30DI,1,24,gestures/car_PL.mp4,cr_sh,a,S,car,1,23,1.4714236,a,TRUE
HE30DI,1,25,gestures/dog_PL.mp4,b_rk,a,S,dog,1,24,2.232948,e,FALSE
HE30DI,1,26,gestures/cat_POS.mp4,n_se,o,S,cat,1,25,1.9364042,o,TRUE
HE30DI,1,27,gestures/horse_PL.mp4,w_lk,a,S,horse,1,26,1.4120433,a,TRUE
HE30DI,1,28,gestures/cat_PL.mp4,sl_ep,e,S,cat,1,27,1.5754585,e,TRUE
HE30DI,1,29,gestures/frog_POS.mp4,fo_t,o,S,frog,1,28,2.1838326,o,TRUE
HE30DI,1,30,gestures/girl_PL.mp4,h_g,u,S,girl,1,29,2.791754,u,TRUE
HE30DI,1,31,gestures/boy_PL.mp4,w_ve,a,S,boy,1,30,6.8873305,e,FALSE
HE30DI,1,32,gestures/frog_PL.mp4,j_mp,u,S,frog,1,31,1.5920435,u,TRUE
HE30DI,1,33,gestures/frog_S.mp4,tong_e,u,G,frog,1,32,3.2356024,u,TRUE
HE30DI,1,34,gestures/baby_S.mp4,t_ddy,e,G,baby,1,33,1.79131,e,TRUE
HE30DI,1,35,gestures/frog_S.mp4,list_n,e,G,frog,1,34,2.337581,e,TRUE
HE30DI,1,36,gestures/baby_S.mp4,bl_nket,a,G,baby,1,35,2.0394816,a,TRUE
HE30DI,1,37,gestures/car_S.mp4,m_ve,o,G,car,1,36,2.8128855,o,TRUE
HE30DI,1,38,gestures/frog_S.mp4,j_mp,u,G,frog,1,37,1.3482453,u,TRUE
HE30DI,1,39,gestures/boy_S.mp4,po_nt,i,G,boy,1,38,7.1396785,u,FALSE
HE30DI,1,40,gestures/cat_S.mp4,lo_k,o,G,cat,1,39,1.5316758,o,TRUE
HE30DI,1,41,gestures/dog_S.mp4,b_rk,a,G,dog,1,40,3.570333,a,TRUE
HE30DI,1,42,gestures/girl_S.mp4,ha_r,i,G,girl,1,41,1.9348547,i,TRUE
HE30DI,1,43,gestures/horse_S.mp4,mo_th,u,G,horse,1,42,2.7124164,u,TRUE
HE30DI,1,44,gestures/boy_S.mp4,bo_k,o,G,boy,1,43,1.7116642,o,TRUE
HE30DI,1,45,gestures/dog_S.mp4,pl_y,a,G,dog,1,44,1.3293706,a,TRUE
HE30DI,1,46,gestures/baby_S.mp4,cr_wl,a,G,baby,1,45,3.755428,e,FALSE
HE30DI,1,47,gestures/girl_S.mp4,h_g,u,G,girl,1,46,1.5828557,u,TRUE
HE30DI,1,48,gestures/horse_S.mp4,h_ad,e,G,horse,1,47,2.0757463,e,TRUE
HE30DI,1,49,gestures/girl_S.mp4,dr_ss,e,G,girl,1,48,2.5481107,e,TRUE
HE30DI,1,50,gestures/girl_S.mp4,wh_stle,i,G,girl,1,49,3.5070803,e,FALSE
HE30DI,1,51,gestures/cat_S.mp4,sl_ep,e,G,cat,1,50,2.4651759,e,TRUE
HE30DI,1,52,gestures/dog_S.mp4,to_th,o,G,dog,1,51,2.0239,o,TRUE
HE30DI,1,53,gestures/boy_S.mp4,t-sh_rt,i,G,boy,1,52,1.8226918,i,TRUE
HE30DI,1,54,gestures/horse_S.mp4,w_lk,a,G,horse,1,53,2.6986477,a,TRUE
HE30DI,1,55,gestures/cat_S.mp4,ta_l,i,G,cat,1,54,3.7749476,i,TRUE
HE30DI,1,56,gestures/car_S.mp4,cr_sh,a,G,car,1,55,2.2595575,a,TRUE
HE30DI,1,57,gestures/baby_S.mp4,sm_le,i,G,baby,1,56,1.6619172,i,TRUE
HE30DI,1,58,gestures/boy_S.mp4,w_ve,a,G,boy,1,57,2.09241,a,TRUE
HE30DI,1,59,gestures/car_S.mp4,whe_l,e,G,car,1,58,2.3051107,e,TRUE
HE30DI,1,60,gestures/cat_S.mp4,n_se,o,G,cat,1,59,2.3861084,o,TRUE
HE30DI,1,61,gestures/frog_S.mp4,fo_t,o,G,frog,1,60,2.4904928,o,TRUE
HE30DI,1,62,gestures/car_S.mp4,wind_w,o,G,car,1,61,2.4008842,o,TRUE
HE30DI,1,63,gestures/horse_S.mp4,k_ck,i,G,horse,1,62,1.7469578,i,TRUE
HE30DI,1,64,gestures/dog_S.mp4,n_ck,e,G,dog,1,63,2.7940814,e,TRUE
HE30DI,2,1,gestures/car_S.mp4,m_ve,o,G,car,1,0,2.3311837,o,TRUE
HE30DI,2,2,gestures/horse_S.mp4,k_ck,i,G,horse,1,1,1.2144474,i,TRUE
HE30DI,2,3,gestures/frog_S.mp4,j_mp,u,G,frog,1,2,1.3455756,u,TRUE
HE30DI,2,4,gestures/frog_S.mp4,tong_e,u,G,frog,1,3,9.769622,u,TRUE
HE30DI,2,5,gestures/horse_S.mp4,mo_th,u,G,horse,1,4,2.4858067,u,TRUE
HE30DI,2,6,gestures/girl_S.mp4,dr_ss,e,G,girl,1,5,1.4682925,e,TRUE
HE30DI,2,7,gestures/car_S.mp4,wind_w,o,G,car,1,6,1.7854317,o,TRUE
HE30DI,2,8,gestures/boy_S.mp4,w_ve,a,G,boy,1,7,1.7530928,a,TRUE
HE30DI,2,9,gestures/dog_S.mp4,b_rk,a,G,dog,1,8,2.1023781,a,TRUE
HE30DI,2,10,gestures/car_S.mp4,cr_sh,a,G,car,1,9,1.1295518,a,TRUE
HE30DI,2,11,gestures/dog_S.mp4,pl_y,a,G,dog,1,10,1.1000823,a,TRUE
HE30DI,2,12,gestures/boy_S.mp4,bo_k,o,G,boy,1,11,1.348139,o,TRUE
HE30DI,2,13,gestures/baby_S.mp4,t_ddy,e,G,baby,1,12,1.7199256,e,TRUE
HE30DI,2,14,gestures/dog_S.mp4,to_th,o,G,dog,1,13,2.152931,o,TRUE
HE30DI,2,15,gestures/car_S.mp4,whe_l,e,G,car,1,14,1.4923525,e,TRUE
HE30DI,2,16,gestures/baby_S.mp4,sm_le,i,G,baby,1,15,2.070025,a,FALSE
HE30DI,2,17,gestures/girl_S.mp4,wh_stle,i,G,girl,1,16,2.1130188,e,FALSE
HE30DI,2,18,gestures/cat_S.mp4,sl_ep,e,G,cat,1,17,1.1973646,e,TRUE
HE30DI,2,19,gestures/baby_S.mp4,cr_wl,a,G,baby,1,18,3.1931088,a,TRUE
HE30DI,2,20,gestures/cat_S.mp4,ta_l,i,G,cat,1,19,2.3253708,i,TRUE
HE30DI,2,21,gestures/frog_S.mp4,fo_t,o,G,frog,1,20,1.29683,o,TRUE
HE30DI,2,22,gestures/baby_S.mp4,bl_nket,a,G,baby,1,21,1.3732859,a,TRUE
HE30DI,2,23,gestures/cat_S.mp4,n_se,o,G,cat,1,22,3.308579,o,TRUE
HE30DI,2,24,gestures/dog_S.mp4,n_ck,e,G,dog,1,23,1.877289,e,TRUE
HE30DI,2,25,gestures/horse_S.mp4,w_lk,a,G,horse,1,24,1.2049679,a,TRUE
HE30DI,2,26,gestures/frog_S.mp4,list_n,e,G,frog,1,25,2.9300187,e,TRUE
HE30DI,2,27,gestures/cat_S.mp4,lo_k,o,G,cat,1,26,1.1745731,o,TRUE
HE30DI,2,28,gestures/girl_S.mp4,ha_r,i,G,girl,1,27,1.4970078,i,TRUE
HE30DI,2,29,gestures/girl_S.mp4,h_g,u,G,girl,1,28,3.8375416,u,TRUE
HE30DI,2,30,gestures/boy_S.mp4,t-sh_rt,i,G,boy,1,29,1.9475422,i,TRUE
HE30DI,2,31,gestures/horse_S.mp4,h_ad,e,G,horse,1,30,2.2470727,e,TRUE
HE30DI,2,32,gestures/boy_S.mp4,po_nt,i,G,boy,1,31,1.3576093,i,TRUE
HE30DI,2,1,gestures/horse_POS.mp4,mo_th,u,S,horse,1,0,4.1465697,u,TRUE
HE30DI,2,2,gestures/frog_POS.mp4,tong_e,u,S,frog,1,1,2.4024825,u,TRUE
HE30DI,2,3,gestures/frog_PL.mp4,j_mp,u,S,frog,1,2,1.2563909,u,TRUE
HE30DI,2,4,gestures/car_POS.mp4,whe_l,e,S,car,1,3,1.338555,e,TRUE
HE30DI,2,5,gestures/girl_POS.mp4,dr_ss,e,S,girl,1,4,1.143753,e,TRUE
HE30DI,2,6,gestures/frog_PL.mp4,list_n,e,S,frog,1,5,1.8479975,e,TRUE
HE30DI,2,7,gestures/cat_PL.mp4,sl_ep,e,S,cat,1,6,1.1253561,e,TRUE
HE30DI,2,8,gestures/car_POS.mp4,wind_w,o,S,car,1,7,2.7494423,o,TRUE
HE30DI,2,9,gestures/cat_POS.mp4,ta_l,i,S,cat,1,8,1.4166178,i,TRUE
HE30DI,2,10,gestures/horse_POS.mp4,h_ad,e,S,horse,1,9,1.9005736,e,TRUE
HE30DI,2,11,gestures/boy_PL.mp4,w_ve,a,S,boy,1,10,1.6560992,a,TRUE
HE30DI,2,12,gestures/girl_POS.mp4,ha_r,i,S,girl,1,11,3.2355692,i,TRUE
HE30DI,2,13,gestures/baby_PL.mp4,sm_le,i,S,baby,1,12,1.4381659,i,TRUE
HE30DI,2,14,gestures/dog_PL.mp4,b_rk,a,S,dog,1,13,2.4079635,e,FALSE
HE30DI,2,15,gestures/baby_POS.mp4,bl_nket,a,S,baby,1,14,1.3080026,a,TRUE
HE30DI,2,16,gestures/dog_POS.mp4,n_ck,e,S,dog,1,15,1.2495563,e,TRUE
HE30DI,2,17,gestures/cat_POS.mp4,n_se,o,S,cat,1,16,1.6096888,o,TRUE
HE30DI,2,18,gestures/baby_POS.mp4,t_ddy,e,S,baby,1,17,1.1703093,e,TRUE
HE30DI,2,19,gestures/horse_PL.mp4,w_lk,a,S,horse,1,18,1.0673358,a,TRUE
HE30DI,2,20,gestures/frog_POS.mp4,fo_t,o,S,frog,1,19,1.0910517,o,TRUE
HE30DI,2,21,gestures/dog_PL.mp4,pl_y,a,S,dog,1,20,1.175553,a,TRUE
HE30DI,2,22,gestures/dog_POS.mp4,to_th,o,S,dog,1,21,4.3512983,u,FALSE
HE30DI,2,23,gestures/baby_PL.mp4,cr_wl,a,S,baby,1,22,3.7611034,e,FALSE
HE30DI,2,24,gestures/boy_PL.mp4,po_nt,i,S,boy,1,23,2.1028295,i,TRUE
HE30DI,2,25,gestures/horse_PL.mp4,k_ck,i,S,horse,1,24,1.1074157,i,TRUE
HE30DI,2,26,gestures/boy_POS.mp4,t-sh_rt,i,S,boy,1,25,1.460207,i,TRUE
HE30DI,2,27,gestures/cat_PL.mp4,lo_k,o,S,cat,1,26,1.1050652,o,TRUE
HE30DI,2,28,gestures/girl_PL.mp4,h_g,u,S,girl,1,27,1.3634968,u,TRUE
HE30DI,2,29,gestures/girl_PL.mp4,wh_stle,i,S,girl,1,28,1.6535077,e,FALSE
HE30DI,2,30,gestures/car_PL.mp4,cr_sh,a,S,car,1,29,2.4608269,a,TRUE
HE30DI,2,31,gestures/boy_POS.mp4,bo_k,o,S,boy,1,30,1.0362483,o,TRUE
HE30DI,2,32,gestures/car_PL.mp4,m_ve,o,S,car,1,31,1.8316934,a,FALSE
JA34KA,1,1,gestures/boy_POS.mp4,bo_k,o,S,boy,1,0,2.0065274,o,TRUE
JA34KA,1,2,gestures/baby_POS.mp4,bl_nket,a,S,baby,1,1,1.4067634,a,TRUE
JA34KA,1,3,gestures/car_PL.mp4,cr_sh,a,S,car,1,2,1.6656203,a,TRUE
JA34KA,1,4,gestures/cat_POS.mp4,ta_l,i,S,cat,1,3,1.777927,i,TRUE
JA34KA,1,5,gestures/girl_POS.mp4,ha_r,i,S,girl,1,4,1.506687,i,TRUE
JA34KA,1,6,gestures/dog_POS.mp4,n_ck,e,S,dog,1,5,1.8877726,e,TRUE
JA34KA,1,7,gestures/car_PL.mp4,m_ve,o,S,car,1,6,1.6398988,o,TRUE
JA34KA,1,8,gestures/dog_POS.mp4,to_th,o,S,dog,1,7,1.566613,o,TRUE
JA34KA,1,9,gestures/boy_PL.mp4,w_ve,a,S,boy,1,8,1.6429663,i,FALSE
JA34KA,1,10,gestures/baby_PL.mp4,sm_le,i,S,baby,1,9,1.4514068,i,TRUE
JA34KA,1,11,gestures/girl_PL.mp4,h_g,u,S,girl,1,10,3.3104982,a,FALSE
JA34KA,1,12,gestures/baby_PL.mp4,cr_wl,a,S,baby,1,11,1.5045757,a,TRUE
JA34KA,1,13,gestures/horse_POS.mp4,mo_th,u,S,horse,1,12,1.6790982,o,FALSE
JA34KA,1,14,gestures/car_POS.mp4,whe_l,e,S,car,1,13,7.7316537,a,FALSE
JA34KA,1,15,gestures/car_POS.mp4,wind_w,o,S,car,1,14,1.7419674,o,TRUE
JA34KA,1,16,gestures/horse_PL.mp4,k_ck,i,S,horse,1,15,1.6795694,i,TRUE
JA34KA,1,17,gestures/horse_POS.mp4,h_ad,e,S,horse,1,16,1.8108081,e,TRUE
JA34KA,1,18,gestures/cat_PL.mp4,sl_ep,e,S,cat,1,17,1.8299749,e,TRUE
JA34KA,1,19,gestures/cat_POS.mp4,n_se,o,S,cat,1,18,1.5080572,o,TRUE
JA34KA,1,20,gestures/girl_POS.mp4,dr_ss,e,S,girl,1,19,1.4698963,e,TRUE
JA34KA,1,21,gestures/dog_PL.mp4,b_rk,a,S,dog,1,20,2.7060125,i,FALSE
JA34KA,1,22,gestures/baby_POS.mp4,t_ddy,e,S,baby,1,21,1.4539886,e,TRUE
JA34KA,1,23,gestures/boy_PL.mp4,po_nt,i,S,boy,1,22,1.6806808,i,TRUE
JA34KA,1,24,gestures/boy_POS.mp4,t-sh_rt,i,S,boy,1,23,2.0992827,i,TRUE
JA34KA,1,25,gestures/horse_PL.mp4,w_lk,a,S,horse,1,24,1.5160815,a,TRUE
JA34KA,1,26,gestures/frog_PL.mp4,list_n,e,S,frog,1,25,2.342232,e,TRUE
JA34KA,1,27,gestures/girl_PL.mp4,wh_stle,i,S,girl,1,26,2.820078,i,TRUE
JA34KA,1,28,gestures/frog_POS.mp4,tong_e,u,S,frog,1,27,6.1591687,u,TRUE
JA34KA,1,29,gestures/frog_PL.mp4,j_mp,u,S,frog,1,28,1.6938479,u,TRUE
JA34KA,1,30,gestures/dog_PL.mp4,pl_y,a,S,dog,1,29,1.5088823,a,TRUE
JA34KA,1,31,gestures/frog_POS.mp4,fo_t,o,S,frog,1,30,1.932315,o,TRUE
JA34KA,1,32,gestures/cat_PL.mp4,lo_k,o,S,cat,1,31,1.6487595,o,TRUE
JA34KA,1,33,gestures/horse_S.mp4,mo_th,u,G,horse,1,32,1.6819123,o,FALSE
JA34KA,1,34,gestures/cat_S.mp4,lo_k,o,G,cat,1,33,1.3534461,o,TRUE
JA34KA,1,35,gestures/dog_S.mp4,pl_y,a,G,dog,1,34,1.3038251,a,TRUE
JA34KA,1,36,gestures/baby_S.mp4,t_ddy,e,G,baby,1,35,1.3725348,e,TRUE
JA34KA,1,37,gestures/car_S.mp4,whe_l,e,G,car,1,36,1.6101177,e,TRUE
JA34KA,1,38,gestures/horse_S.mp4,k_ck,i,G,horse,1,37,1.2119737,i,TRUE
JA34KA,1,39,gestures/baby_S.mp4,bl_nket,a,G,baby,1,38,1.3232416,a,TRUE
JA34KA,1,40,gestures/frog_S.mp4,j_mp,u,G,frog,1,39,1.6906401,u,TRUE
JA34KA,1,41,gestures/boy_S.mp4,bo_k,o,G,boy,1,40,1.4609616,o,TRUE
JA34KA,1,42,gestures/frog_S.mp4,fo_t,o,G,frog,1,41,1.3275266,o,TRUE
JA34KA,1,43,gestures/horse_S.mp4,h_ad,e,G,horse,1,42,1.7027109,e,TRUE
JA34KA,1,44,gestures/baby_S.mp4,cr_wl,a,G,baby,1,43,1.3032621,a,TRUE
JA34KA,1,45,gestures/dog_S.mp4,to_th,o,G,dog,1,44,1.4469754,o,TRUE
JA34KA,1,46,gestures/cat_S.mp4,n_se,o,G,cat,1,45,1.4173914,o,TRUE
JA34KA,1,47,gestures/girl_S.mp4,dr_ss,e,G,girl,1,46,1.4604144,e,TRUE
JA34KA,1,48,gestures/cat_S.mp4,ta_l,i,G,cat,1,47,1.391963,i,TRUE
JA34KA,1,49,gestures/boy_S.mp4,w_ve,a,G,boy,1,48,1.4191556,i,FALSE
JA34KA,1,50,gestures/frog_S.mp4,tong_e,u,G,frog,1,49,1.8474915,u,TRUE
JA34KA,1,51,gestures/car_S.mp4,wind_w,o,G,car,1,50,1.4904039,o,TRUE
JA34KA,1,52,gestures/boy_S.mp4,po_nt,i,G,boy,1,51,1.4342862,i,TRUE
JA34KA,1,53,gestures/frog_S.mp4,list_n,e,G,frog,1,52,1.8506999,e,TRUE
JA34KA,1,54,gestures/car_S.mp4,m_ve,o,G,car,1,53,1.3666431000000001,o,TRUE
JA34KA,1,55,gestures/girl_S.mp4,h_g,u,G,girl,1,54,1.4873343,u,TRUE
JA34KA,1,56,gestures/girl_S.mp4,ha_r,i,G,girl,1,55,1.3304484,i,TRUE
JA34KA,1,57,gestures/baby_S.mp4,sm_le,i,G,baby,1,56,1.2684327,i,TRUE
JA34KA,1,58,gestures/dog_S.mp4,n_ck,e,G,dog,1,57,1.9401379,e,TRUE
JA34KA,1,59,gestures/dog_S.mp4,b_rk,a,G,dog,1,58,1.8461008,a,TRUE
JA34KA,1,60,gestures/boy_S.mp4,t-sh_rt,i,G,boy,1,59,1.8551795,i,TRUE
JA34KA,1,61,gestures/girl_S.mp4,wh_stle,i,G,girl,1,60,3.2554815,i,TRUE
JA34KA,1,62,gestures/car_S.mp4,cr_sh,a,G,car,1,61,1.4073822,a,TRUE
JA34KA,1,63,gestures/horse_S.mp4,w_lk,a,G,horse,1,62,1.2690784,a,TRUE
JA34KA,1,64,gestures/cat_S.mp4,sl_ep,e,G,cat,1,63,1.4822075,e,TRUE
JA34KA,2,1,gestures/horse_S.mp4,w_lk,a,G,horse,1,0,1.5121052,a,TRUE
JA34KA,2,2,gestures/cat_S.mp4,sl_ep,e,G,cat,1,1,1.3837647,e,TRUE
JA34KA,2,3,gestures/cat_S.mp4,lo_k,o,G,cat,1,2,1.2223808,o,TRUE
JA34KA,2,4,gestures/frog_S.mp4,j_mp,u,G,frog,1,3,1.4973114,u,TRUE
JA34KA,2,5,gestures/dog_S.mp4,n_ck,e,G,dog,1,4,2.3126636,e,TRUE
JA34KA,2,6,gestures/cat_S.mp4,ta_l,i,G,cat,1,5,1.7075617,i,TRUE
JA34KA,2,7,gestures/baby_S.mp4,cr_wl,a,G,baby,1,6,1.2772489,a,TRUE
JA34KA,2,8,gestures/horse_S.mp4,h_ad,e,G,horse,1,7,1.5501969,e,TRUE
JA34KA,2,9,gestures/boy_S.mp4,w_ve,a,G,boy,1,8,8.117283,a,TRUE
JA34KA,2,10,gestures/horse_S.mp4,k_ck,i,G,horse,1,9,1.3933856,i,TRUE
JA34KA,2,11,gestures/car_S.mp4,cr_sh,a,G,car,1,10,1.3258995,a,TRUE
JA34KA,2,12,gestures/car_S.mp4,wind_w,o,G,car,1,11,2.5141463,o,TRUE
JA34KA,2,13,gestures/girl_S.mp4,ha_r,i,G,girl,1,12,1.4874883,i,TRUE
JA34KA,2,14,gestures/frog_S.mp4,fo_t,o,G,frog,1,13,1.5384387,o,TRUE
JA34KA,2,15,gestures/horse_S.mp4,mo_th,u,G,horse,1,14,1.5511153,o,FALSE
JA34KA,2,16,gestures/girl_S.mp4,wh_stle,i,G,girl,1,15,1.4781464,i,TRUE
JA34KA,2,17,gestures/dog_S.mp4,pl_y,a,G,dog,1,16,1.2918689,a,TRUE
JA34KA,2,18,gestures/cat_S.mp4,n_se,o,G,cat,1,17,1.3603501,o,TRUE
JA34KA,2,19,gestures/girl_S.mp4,dr_ss,e,G,girl,1,18,1.3559301,e,TRUE
JA34KA,2,20,gestures/baby_S.mp4,bl_nket,a,G,baby,1,19,1.3812641,a,TRUE
JA34KA,2,21,gestures/dog_S.mp4,to_th,o,G,dog,1,20,1.4379429,o,TRUE
JA34KA,2,22,gestures/girl_S.mp4,h_g,u,G,girl,1,21,1.896531,u,TRUE
JA34KA,2,23,gestures/frog_S.mp4,list_n,e,G,frog,1,22,2.763283,e,TRUE
JA34KA,2,24,gestures/baby_S.mp4,sm_le,i,G,baby,1,23,1.5466226,i,TRUE
JA34KA,2,25,gestures/boy_S.mp4,po_nt,i,G,boy,1,24,1.4076959,i,TRUE
JA34KA,2,26,gestures/boy_S.mp4,bo_k,o,G,boy,1,25,1.3578631,o,TRUE
JA34KA,2,27,gestures/car_S.mp4,m_ve,o,G,car,1,26,1.2840722,o,TRUE
JA34KA,2,28,gestures/frog_S.mp4,tong_e,u,G,frog,1,27,2.237632,u,TRUE
JA34KA,2,29,gestures/car_S.mp4,whe_l,e,G,car,1,28,1.9823687,e,TRUE
JA34KA,2,30,gestures/baby_S.mp4,t_ddy,e,G,baby,1,29,1.4707814,e,TRUE
JA34KA,2,31,gestures/dog_S.mp4,b_rk,a,G,dog,1,30,1.8573198,a,TRUE
JA34KA,2,32,gestures/boy_S.mp4,t-sh_rt,i,G,boy,1,31,1.9648994,i,TRUE
JA34KA,2,33,gestures/baby_POS.mp4,t_ddy,e,S,baby,1,32,1.1228203,e,TRUE
JA34KA,2,34,gestures/boy_PL.mp4,w_ve,a,S,boy,1,33,1.4379352,a,TRUE
JA34KA,2,35,gestures/cat_PL.mp4,sl_ep,e,S,cat,1,34,1.2717572,e,TRUE
JA34KA,2,36,gestures/frog_PL.mp4,j_mp,u,S,frog,1,35,1.2797272,u,TRUE
JA34KA,2,37,gestures/boy_PL.mp4,po_nt,i,S,boy,1,36,1.1231346,i,TRUE
JA34KA,2,38,gestures/horse_POS.mp4,h_ad,e,S,horse,1,37,1.3154824,e,TRUE
JA34KA,2,39,gestures/dog_POS.mp4,n_ck,e,S,dog,1,38,1.5559776,e,TRUE
JA34KA,2,40,gestures/cat_PL.mp4,lo_k,o,S,cat,1,39,1.1890492,o,TRUE
JA34KA,2,41,gestures/girl_PL.mp4,wh_stle,i,S,girl,1,40,1.5302348,i,TRUE
JA34KA,2,42,gestures/horse_PL.mp4,k_ck,i,S,horse,1,41,1.0963798,i,TRUE
JA34KA,2,43,gestures/girl_PL.mp4,h_g,u,S,girl,1,42,1.099459,u,TRUE
JA34KA,2,44,gestures/girl_POS.mp4,dr_ss,e,S,girl,1,43,1.397095,e,TRUE
JA34KA,2,45,gestures/frog_POS.mp4,fo_t,o,S,frog,1,44,1.2203969,o,TRUE
JA34KA,2,46,gestures/cat_POS.mp4,n_se,o,S,cat,1,45,1.3163662,o,TRUE
JA34KA,2,47,gestures/baby_PL.mp4,cr_wl,a,S,baby,1,46,1.3304379,a,TRUE
JA34KA,2,48,gestures/cat_POS.mp4,ta_l,i,S,cat,1,47,1.5041697,i,TRUE
JA34KA,2,49,gestures/boy_POS.mp4,t-sh_rt,i,S,boy,1,48,1.5605386,i,TRUE
JA34KA,2,50,gestures/horse_POS.mp4,mo_th,u,S,horse,1,49,2.7780652,u,TRUE
JA34KA,2,51,gestures/dog_PL.mp4,pl_y,a,S,dog,1,50,1.3479911,a,TRUE
JA34KA,2,52,gestures/car_PL.mp4,cr_sh,a,S,car,1,51,1.9851112,a,TRUE
JA34KA,2,53,gestures/baby_POS.mp4,bl_nket,a,S,baby,1,52,1.2972382,a,TRUE
JA34KA,2,54,gestures/frog_PL.mp4,list_n,e,S,frog,1,53,1.5519427,e,TRUE
JA34KA,2,55,gestures/car_POS.mp4,whe_l,e,S,car,1,54,1.3290234,e,TRUE
JA34KA,2,56,gestures/boy_POS.mp4,bo_k,o,S,boy,1,55,1.6621163,o,TRUE
JA34KA,2,57,gestures/baby_PL.mp4,sm_le,i,S,baby,1,56,1.4623355,i,TRUE
JA34KA,2,58,gestures/dog_PL.mp4,b_rk,a,S,dog,1,57,2.0002766,a,TRUE
JA34KA,2,59,gestures/dog_POS.mp4,to_th,o,S,dog,1,58,1.939544,o,TRUE
JA34KA,2,60,gestures/girl_POS.mp4,ha_r,i,S,girl,1,59,1.5760792,i,TRUE
JA34KA,2,61,gestures/car_POS.mp4,wind_w,o,S,car,1,60,2.39081,o,TRUE
JA34KA,2,62,gestures/frog_POS.mp4,tong_e,u,S,frog,1,61,1.7961894,u,TRUE
JA34KA,2,63,gestures/horse_PL.mp4,w_lk,a,S,horse,1,62,1.4056237,a,TRUE
JA34KA,2,64,gestures/car_PL.mp4,m_ve,o,S,car,1,63,1.7201717,o,TRUE
JE17AL,1,1,gestures/baby_POS.mp4,bl_nket,a,S,baby,1,0,2.8302228,a,TRUE
JE17AL,1,2,gestures/horse_POS.mp4,mo_th,u,S,horse,1,1,3.9874077,o,FALSE
JE17AL,1,3,gestures/dog_POS.mp4,n_ck,e,S,dog,1,2,1.7838204,e,TRUE
JE17AL,1,4,gestures/boy_PL.mp4,po_nt,i,S,boy,1,3,2.0193498,u,FALSE
JE17AL,1,5,gestures/boy_POS.mp4,bo_k,o,S,boy,1,4,1.3376547,o,TRUE
JE17AL,1,6,gestures/cat_PL.mp4,lo_k,o,S,cat,1,5,1.4169232,o,TRUE
JE17AL,1,7,gestures/boy_PL.mp4,w_ve,a,S,boy,1,6,7.4134164,a,TRUE
JE17AL,1,8,gestures/frog_PL.mp4,list_n,e,S,frog,1,7,1.6583408,i,FALSE
JE17AL,1,9,gestures/car_PL.mp4,cr_sh,a,S,car,1,8,1.71739,a,TRUE
JE17AL,1,10,gestures/baby_POS.mp4,t_ddy,e,S,baby,1,9,1.5297467,e,TRUE
JE17AL,1,11,gestures/girl_PL.mp4,wh_stle,i,S,girl,1,10,4.9955606,i,TRUE
JE17AL,1,12,gestures/horse_PL.mp4,k_ck,i,S,horse,1,11,1.9576265,i,TRUE
JE17AL,1,13,gestures/car_PL.mp4,m_ve,o,S,car,1,12,1.9150329,o,TRUE
JE17AL,1,14,gestures/baby_PL.mp4,cr_wl,a,S,baby,1,13,1.6167185,a,TRUE
JE17AL,1,15,gestures/frog_POS.mp4,fo_t,o,S,frog,1,14,1.3312613,o,TRUE
JE17AL,1,16,gestures/dog_PL.mp4,pl_y,a,S,dog,1,15,1.32494,a,TRUE
JE17AL,1,17,gestures/cat_PL.mp4,sl_ep,e,S,cat,1,16,1.1756225,e,TRUE
JE17AL,1,18,gestures/horse_PL.mp4,w_lk,a,S,horse,1,17,1.283502,o,FALSE
JE17AL,1,19,gestures/car_POS.mp4,wind_w,o,S,car,1,18,2.548613,o,TRUE
JE17AL,1,20,gestures/dog_PL.mp4,b_rk,a,S,dog,1,19,3.5392303,o,FALSE
JE17AL,1,21,gestures/cat_POS.mp4,ta_l,i,S,cat,1,20,3.5256996,e,FALSE
JE17AL,1,22,gestures/horse_POS.mp4,h_ad,e,S,horse,1,21,1.7036854,e,TRUE
JE17AL,1,23,gestures/girl_POS.mp4,ha_r,i,S,girl,1,22,2.481296,e,FALSE
JE17AL,1,24,gestures/baby_PL.mp4,sm_le,i,S,baby,1,23,2.3272207,i,TRUE
JE17AL,1,25,gestures/dog_POS.mp4,to_th,o,S,dog,1,24,2.392341,u,FALSE
JE17AL,1,26,gestures/cat_POS.mp4,n_se,o,S,cat,1,25,1.2658827,o,TRUE
JE17AL,1,27,gestures/girl_PL.mp4,h_g,u,S,girl,1,26,5.44658,a,FALSE
JE17AL,1,28,gestures/frog_POS.mp4,tong_e,u,S,frog,1,27,3.7665372,o,FALSE
JE17AL,1,29,gestures/boy_POS.mp4,t-sh_rt,i,S,boy,1,28,1.8948113,i,TRUE
JE17AL,1,30,gestures/girl_POS.mp4,dr_ss,e,S,girl,1,29,1.599922,a,FALSE
JE17AL,1,31,gestures/car_POS.mp4,whe_l,e,S,car,1,30,3.5603704,a,FALSE
JE17AL,1,32,gestures/frog_PL.mp4,j_mp,u,S,frog,1,31,1.3495557,u,TRUE
JE17AL,1,33,gestures/frog_S.mp4,tong_e,u,G,frog,1,32,1.7678148,u,TRUE
JE17AL,1,34,gestures/frog_S.mp4,list_n,e,G,frog,1,33,2.6280859,i,FALSE
JE17AL,1,35,gestures/car_S.mp4,whe_l,e,G,car,1,34,2.84034,e,TRUE
JE17AL,1,36,gestures/girl_S.mp4,h_g,u,G,girl,1,35,2.2058866,u,TRUE
JE17AL,1,37,gestures/car_S.mp4,cr_sh,a,G,car,1,36,1.3694463,a,TRUE
JE17AL,1,38,gestures/cat_S.mp4,ta_l,i,G,cat,1,37,3.62061,e,FALSE
JE17AL,1,39,gestures/car_S.mp4,m_ve,o,G,car,1,38,1.2931417,o,TRUE
JE17AL,1,40,gestures/boy_S.mp4,w_ve,a,G,boy,1,39,1.310007,o,FALSE
JE17AL,1,41,gestures/girl_S.mp4,dr_ss,e,G,girl,1,40,1.3982128,e,TRUE
JE17AL,1,42,gestures/dog_S.mp4,n_ck,e,G,dog,1,41,1.191428,e,TRUE
JE17AL,1,43,gestures/horse_S.mp4,k_ck,i,G,horse,1,42,1.5970517,i,TRUE
JE17AL,1,44,gestures/boy_S.mp4,t-sh_rt,i,G,boy,1,43,2.017087,i,TRUE
JE17AL,1,45,gestures/boy_S.mp4,bo_k,o,G,boy,1,44,1.1656709,o,TRUE
JE17AL,1,46,gestures/car_S.mp4,wind_w,o,G,car,1,45,1.1332345,o,TRUE
JE17AL,1,47,gestures/cat_S.mp4,n_se,o,G,cat,1,46,1.0981178,o,TRUE
JE17AL,1,48,gestures/frog_S.mp4,j_mp,u,G,frog,1,47,1.3146862,u,TRUE
JE17AL,1,49,gestures/dog_S.mp4,pl_y,a,G,dog,1,48,1.1715446,a,TRUE
JE17AL,1,50,gestures/cat_S.mp4,lo_k,o,G,cat,1,49,1.6307979,o,TRUE
JE17AL,1,51,gestures/baby_S.mp4,bl_nket,a,G,baby,1,50,1.4446522,a,TRUE
