subject,TrialNumber,gestures,target,corrAns,condition,gestureSet,ran,order,RT,answer,correct
MA10OL1,1,gestures/horse_S.mp4,w_lk,a,G,horse,1.0,0.0,1.4619659,a,True
MA10OL1,2,gestures/baby_S.mp4,bl_nket,a,G,baby,1.0,1.0,1.150485,a,True
MA10OL1,3,gestures/dog_S.mp4,pl_y,a,G,dog,1.0,2.0,1.0275139,a,True
MA10OL1,4,gestures/girl_S.mp4,h_g,u,G,girl,1.0,3.0,1.3923011,u,True
MA10OL1,5,gestures/frog_S.mp4,j_mp,u,G,frog,1.0,4.0,0.60338235,u,True
MA10OL1,6,gestures/cat_S.mp4,n_se,o,G,cat,1.0,5.0,1.1209469,o,True
MA10OL1,7,gestures/frog_S.mp4,list_n,e,G,frog,1.0,6.0,1.2046226,e,True
MA10OL1,8,gestures/baby_S.mp4,t_ddy,e,G,baby,1.0,7.0,0.986726,e,True
MA10OL1,9,gestures/frog_S.mp4,fo_t,o,G,frog,1.0,8.0,1.724596,o,True
MA10OL1,10,gestures/boy_S.mp4,bo_k,o,G,boy,1.0,9.0,1.1809636,o,True
MA10OL1,11,gestures/car_S.mp4,wind_w,o,G,car,1.0,10.0,1.052448,o,True
MA10OL1,12,gestures/dog_S.mp4,n_ck,e,G,dog,1.0,11.0,1.9025334,e,True
MA10OL1,13,gestures/baby_S.mp4,cr_wl,a,G,baby,1.0,12.0,1.1810747,a,True
MA10OL1,14,gestures/dog_S.mp4,b_rk,a,G,dog,1.0,13.0,1.0892206,a,True
MA10OL1,15,gestures/cat_S.mp4,lo_k,o,G,cat,1.0,14.0,0.911743,o,True
MA10OL1,16,gestures/car_S.mp4,cr_sh,a,G,car,1.0,15.0,1.3096151,a,True
MA10OL1,17,gestures/horse_S.mp4,k_ck,i,G,horse,1.0,16.0,1.11733,i,True
MA10OL1,18,gestures/cat_S.mp4,ta_l,i,G,cat,1.0,17.0,11.105143,i,True
MA10OL1,19,gestures/horse_S.mp4,h_ad,e,G,horse,1.0,18.0,1.735507,e,True
MA10OL1,20,gestures/baby_S.mp4,sm_le,i,G,baby,1.0,19.0,1.8773031,i,True
MA10OL1,21,gestures/horse_S.mp4,mo_th,u,G,horse,1.0,20.0,1.4002429,u,True
MA10OL1,22,gestures/car_S.mp4,m_ve,o,G,car,1.0,21.0,0.8999681,o,True
MA10OL1,23,gestures/boy_S.mp4,po_nt,i,G,boy,1.0,22.0,1.4671783,i,True
MA10OL1,24,gestures/dog_S.mp4,to_th,o,G,dog,1.0,23.0,1.3366171,o,True
MA10OL1,25,gestures/boy_S.mp4,w_ve,a,G,boy,1.0,24.0,1.1531855,a,True
MA10OL1,26,gestures/girl_S.mp4,wh_stle,i,G,girl,1.0,25.0,0.99760807,i,True
MA10OL1,27,gestures/car_S.mp4,whe_l,e,G,car,1.0,26.0,2.217229,e,True
MA10OL1,28,gestures/girl_S.mp4,ha_r,i,G,girl,1.0,27.0,1.2859102,i,True
MA10OL1,29,gestures/girl_S.mp4,dr_ss,e,G,girl,1.0,28.0,1.1898451,e,True
MA10OL1,30,gestures/cat_S.mp4,sl_ep,e,G,cat,1.0,29.0,1.0103652,e,True
MA10OL1,31,gestures/frog_S.mp4,tong_e,u,G,frog,1.0,30.0,1.2415693,u,True
MA10OL1,32,gestures/boy_S.mp4,t-sh_rt,i,G,boy,1.0,31.0,1.416859,i,True
MA10OL1,33,gestures/dog_PL.mp4,pl_y,a,S,dog,1.0,32.0,1.1373659,a,True
MA10OL1,34,gestures/dog_POS.mp4,n_ck,e,S,dog,1.0,33.0,1.1504436,e,True
MA10OL1,35,gestures/girl_POS.mp4,dr_ss,e,S,girl,1.0,34.0,0.9940443,e,True
MA10OL1,36,gestures/baby_PL.mp4,cr_wl,a,S,baby,1.0,35.0,0.9812059,a,True
MA10OL1,37,gestures/baby_POS.mp4,bl_nket,a,S,baby,1.0,36.0,0.98153365,a,True
MA10OL1,38,gestures/boy_POS.mp4,t-sh_rt,i,S,boy,1.0,37.0,1.0136725,i,True
MA10OL1,39,gestures/baby_PL.mp4,sm_le,i,S,baby,1.0,38.0,1.0212266,i,True
MA10OL1,40,gestures/horse_PL.mp4,k_ck,i,S,horse,1.0,39.0,0.9770259,i,True
MA10OL1,41,gestures/boy_PL.mp4,po_nt,i,S,boy,1.0,40.0,1.037207,i,True
MA10OL1,42,gestures/girl_POS.mp4,ha_r,i,S,girl,1.0,41.0,1.0033715,i,True
MA10OL1,43,gestures/girl_PL.mp4,wh_stle,i,S,girl,1.0,42.0,1.1925988,i,True
MA10OL1,44,gestures/dog_PL.mp4,b_rk,a,S,dog,1.0,43.0,1.0426103,a,True
MA10OL1,45,gestures/dog_POS.mp4,to_th,o,S,dog,1.0,44.0,0.9361627,o,True
MA10OL1,46,gestures/boy_PL.mp4,w_ve,a,S,boy,1.0,45.0,1.0511959,a,True
MA10OL1,47,gestures/cat_POS.mp4,ta_l,i,S,cat,1.0,46.0,1.9152099,i,True
MA10OL1,48,gestures/horse_POS.mp4,h_ad,e,S,horse,1.0,47.0,1.1164109,e,True
MA10OL1,49,gestures/frog_PL.mp4,j_mp,u,S,frog,1.0,48.0,0.8758327,u,True
MA10OL1,50,gestures/car_PL.mp4,cr_sh,a,S,car,1.0,49.0,1.2286974,a,True
MA10OL1,51,gestures/baby_POS.mp4,t_ddy,e,S,baby,1.0,50.0,0.7716599,e,True
MA10OL1,52,gestures/cat_POS.mp4,n_se,o,S,cat,1.0,51.0,0.92951983,o,True
MA10OL1,53,gestures/horse_POS.mp4,mo_th,u,S,horse,1.0,52.0,1.2622375,u,True
MA10OL1,54,gestures/car_POS.mp4,whe_l,e,S,car,1.0,53.0,1.2943234,e,True
MA10OL1,55,gestures/car_PL.mp4,m_ve,o,S,car,1.0,54.0,1.7531942,o,True
MA10OL1,56,gestures/boy_POS.mp4,bo_k,o,S,boy,1.0,55.0,0.92838246,o,True
MA10OL1,57,gestures/horse_PL.mp4,w_lk,a,S,horse,1.0,56.0,1.0854572,a,True
MA10OL1,58,gestures/cat_PL.mp4,lo_k,o,S,cat,1.0,57.0,0.88332987,o,True
MA10OL1,59,gestures/frog_POS.mp4,tong_e,u,S,frog,1.0,58.0,1.2641578,u,True
MA10OL1,60,gestures/frog_PL.mp4,list_n,e,S,frog,1.0,59.0,1.8250549,e,True
MA10OL1,61,gestures/girl_PL.mp4,h_g,u,S,girl,1.0,60.0,1.0100313,u,True
MA10OL1,62,gestures/car_POS.mp4,wind_w,o,S,car,1.0,61.0,1.0696933,o,True
MA10OL1,63,gestures/cat_PL.mp4,sl_ep,e,S,cat,1.0,62.0,0.9741666,e,True
MA10OL1,64,gestures/frog_POS.mp4,fo_t,o,S,frog,1.0,63.0,1.0436673,o,True
