subject,TrialNumber,gestures,target,corrAns,condition,gestureSet,ran,order,RT,answer,correct
NA36RO1,1,gestures/dog_PL.mp4,pl_y,a,S,dog,1.0,0.0,1.9309468,a,True
NA36RO1,2,gestures/boy_POS.mp4,bo_k,o,S,boy,1.0,1.0,1.9863677,o,True
NA36RO1,3,gestures/horse_PL.mp4,w_lk,a,S,horse,1.0,2.0,1.357611,a,True
NA36RO1,4,gestures/girl_PL.mp4,wh_stle,i,S,girl,1.0,3.0,1.6154039,i,True
NA36RO1,5,gestures/frog_PL.mp4,j_mp,u,S,frog,1.0,4.0,1.4984101,u,True
NA36RO1,6,gestures/girl_POS.mp4,dr_ss,e,S,girl,1.0,5.0,1.3289754,e,True
NA36RO1,7,gestures/dog_POS.mp4,n_ck,e,S,dog,1.0,6.0,1.3214089,e,True
NA36RO1,8,gestures/baby_POS.mp4,t_ddy,e,S,baby,1.0,7.0,1.5836478,e,True
NA36RO1,9,gestures/girl_PL.mp4,h_g,u,S,girl,1.0,8.0,3.444826,a,False
NA36RO1,10,gestures/horse_POS.mp4,h_ad,e,S,horse,1.0,9.0,2.6554782,e,True
NA36RO1,11,gestures/baby_PL.mp4,cr_wl,a,S,baby,1.0,10.0,1.3065175,a,True
NA36RO1,12,gestures/horse_PL.mp4,k_ck,i,S,horse,1.0,11.0,1.7316369,i,True
NA36RO1,13,gestures/girl_POS.mp4,ha_r,i,S,girl,1.0,12.0,2.8145635,a,False
NA36RO1,14,gestures/frog_PL.mp4,list_n,e,S,frog,1.0,13.0,1.556916,e,True
NA36RO1,15,gestures/baby_POS.mp4,bl_nket,a,S,baby,1.0,14.0,1.2770928,a,True
NA36RO1,16,gestures/dog_PL.mp4,b_rk,a,S,dog,1.0,15.0,3.9826152,a,True
NA36RO1,17,gestures/cat_PL.mp4,sl_ep,e,S,cat,1.0,16.0,1.6047313,e,True
NA36RO1,18,gestures/frog_POS.mp4,tong_e,u,S,frog,1.0,17.0,2.1478674,u,True
NA36RO1,19,gestures/cat_PL.mp4,lo_k,o,S,cat,1.0,18.0,1.2423768,o,True
NA36RO1,20,gestures/car_POS.mp4,wind_w,o,S,car,1.0,19.0,1.4805535,o,True
NA36RO1,21,gestures/baby_PL.mp4,sm_le,i,S,baby,1.0,20.0,1.7431331,i,True
NA36RO1,22,gestures/car_PL.mp4,m_ve,o,S,car,1.0,21.0,1.2955464,o,True
NA36RO1,23,gestures/horse_POS.mp4,mo_th,u,S,horse,1.0,22.0,1.6391764,u,True
NA36RO1,24,gestures/frog_POS.mp4,fo_t,o,S,frog,1.0,23.0,1.4165585,o,True
NA36RO1,25,gestures/car_POS.mp4,whe_l,e,S,car,1.0,24.0,1.473551,e,True
NA36RO1,26,gestures/boy_POS.mp4,t-sh_rt,i,S,boy,1.0,25.0,1.5270456,i,True
NA36RO1,27,gestures/dog_POS.mp4,to_th,o,S,dog,1.0,26.0,1.4931171,o,True
NA36RO1,28,gestures/boy_PL.mp4,w_ve,a,S,boy,1.0,27.0,1.9939865,a,True
NA36RO1,29,gestures/cat_POS.mp4,ta_l,i,S,cat,1.0,28.0,2.0997372,i,True
NA36RO1,30,gestures/cat_POS.mp4,n_se,o,S,cat,1.0,29.0,1.3125961,o,True
NA36RO1,31,gestures/boy_PL.mp4,po_nt,i,S,boy,1.0,30.0,1.3137518,i,True
NA36RO1,32,gestures/car_PL.mp4,cr_sh,a,S,car,1.0,31.0,1.0597913,a,True
NA36RO1,33,gestures/baby_S.mp4,sm_le,i,G,baby,1.0,32.0,1.3109725,i,True
NA36RO1,34,gestures/frog_S.mp4,list_n,e,G,frog,1.0,33.0,1.3734775,e,True
NA36RO1,35,gestures/girl_S.mp4,ha_r,i,G,girl,1.0,34.0,1.4689928,i,True
NA36RO1,36,gestures/car_S.mp4,m_ve,o,G,car,1.0,35.0,1.272005,o,True
NA36RO1,37,gestures/boy_S.mp4,po_nt,i,G,boy,1.0,36.0,1.4951105,i,True
NA36RO1,38,gestures/frog_S.mp4,tong_e,u,G,frog,1.0,37.0,1.3197682,u,True
NA36RO1,39,gestures/baby_S.mp4,t_ddy,e,G,baby,1.0,38.0,1.2995526,e,True
NA36RO1,40,gestures/cat_S.mp4,ta_l,i,G,cat,1.0,39.0,1.4821955,i,True
NA36RO1,41,gestures/car_S.mp4,cr_sh,a,G,car,1.0,40.0,1.2922628,a,True
NA36RO1,42,gestures/horse_S.mp4,h_ad,e,G,horse,1.0,41.0,2.0986528,e,True
NA36RO1,43,gestures/frog_S.mp4,fo_t,o,G,frog,1.0,42.0,1.4750044,o,True
NA36RO1,44,gestures/baby_S.mp4,bl_nket,a,G,baby,1.0,43.0,1.3589749,a,True
NA36RO1,45,gestures/baby_S.mp4,cr_wl,a,G,baby,1.0,44.0,1.1540389,a,True
NA36RO1,46,gestures/dog_S.mp4,to_th,o,G,dog,1.0,45.0,4.651866,o,True
NA36RO1,47,gestures/car_S.mp4,wind_w,o,G,car,1.0,46.0,4.109224,o,True
NA36RO1,48,gestures/cat_S.mp4,n_se,o,G,cat,1.0,47.0,1.1589719,o,True
NA36RO1,49,gestures/horse_S.mp4,k_ck,i,G,horse,1.0,48.0,1.9246322,i,True
NA36RO1,50,gestures/boy_S.mp4,t-sh_rt,i,G,boy,1.0,49.0,1.0774491,i,True
NA36RO1,51,gestures/dog_S.mp4,n_ck,e,G,dog,1.0,50.0,1.779941,e,True
NA36RO1,52,gestures/girl_S.mp4,wh_stle,i,G,girl,1.0,51.0,1.5352168,i,True
NA36RO1,53,gestures/frog_S.mp4,j_mp,u,G,frog,1.0,52.0,1.7764591,u,True
NA36RO1,54,gestures/dog_S.mp4,pl_y,a,G,dog,1.0,53.0,1.3050735,a,True
NA36RO1,55,gestures/dog_S.mp4,b_rk,a,G,dog,1.0,54.0,3.624285,a,True
NA36RO1,56,gestures/horse_S.mp4,mo_th,u,G,horse,1.0,55.0,1.9565791,u,True
NA36RO1,57,gestures/girl_S.mp4,dr_ss,e,G,girl,1.0,56.0,1.827669,e,True
NA36RO1,58,gestures/horse_S.mp4,w_lk,a,G,horse,1.0,57.0,1.2043165,a,True
NA36RO1,59,gestures/car_S.mp4,whe_l,e,G,car,1.0,58.0,2.1072912,e,True
NA36RO1,60,gestures/cat_S.mp4,sl_ep,e,G,cat,1.0,59.0,1.6373284,e,True
NA36RO1,61,gestures/girl_S.mp4,h_g,u,G,girl,1.0,60.0,1.4739465,u,True
NA36RO1,62,gestures/boy_S.mp4,bo_k,o,G,boy,1.0,61.0,1.7530875,o,True
NA36RO1,63,gestures/boy_S.mp4,w_ve,a,G,boy,1.0,62.0,2.0664856,a,True
NA36RO1,64,gestures/cat_S.mp4,lo_k,o,G,cat,1.0,63.0,2.0968957,o,True
