subject,TrialNumber,gestures,target,corrAns,condition,gestureSet,ran,order,RT,answer,correct
PE05CA1,1,gestures/car_S.mp4,wind_w,o,G,car,1.0,0.0,4.23446,o,True
PE05CA1,2,gestures/horse_S.mp4,mo_th,u,G,horse,1.0,1.0,2.966768,u,True
PE05CA1,3,gestures/frog_S.mp4,j_mp,u,G,frog,1.0,2.0,1.1947689,u,True
PE05CA1,4,gestures/dog_S.mp4,pl_y,a,G,dog,1.0,3.0,1.9906646,a,True
PE05CA1,5,gestures/boy_S.mp4,po_nt,i,G,boy,1.0,4.0,1.7522751,u,False
PE05CA1,6,gestures/boy_S.mp4,t-sh_rt,i,G,boy,1.0,5.0,3.3253486,o,False
PE05CA1,7,gestures/car_S.mp4,whe_l,e,G,car,1.0,6.0,2.562595,e,True
PE05CA1,8,gestures/baby_S.mp4,bl_nket,a,G,baby,1.0,7.0,1.6939013,a,True
PE05CA1,9,gestures/girl_S.mp4,wh_stle,i,G,girl,1.0,8.0,1.696976,i,True
PE05CA1,10,gestures/horse_S.mp4,h_ad,e,G,horse,1.0,9.0,3.2508273,e,True
PE05CA1,11,gestures/girl_S.mp4,dr_ss,e,G,girl,1.0,10.0,1.5527753,e,True
PE05CA1,12,gestures/boy_S.mp4,bo_k,o,G,boy,1.0,11.0,1.6966096,o,True
PE05CA1,13,gestures/cat_S.mp4,lo_k,o,G,cat,1.0,12.0,1.2294544,o,True
PE05CA1,14,gestures/girl_S.mp4,h_g,u,G,girl,1.0,13.0,1.7738783,a,False
PE05CA1,15,gestures/boy_S.mp4,w_ve,a,G,boy,1.0,14.0,1.6858537,a,True
PE05CA1,16,gestures/frog_S.mp4,fo_t,o,G,frog,1.0,15.0,2.92106,a,False
PE05CA1,17,gestures/car_S.mp4,m_ve,o,G,car,1.0,16.0,1.8407842,o,True
PE05CA1,18,gestures/horse_S.mp4,w_lk,a,G,horse,1.0,17.0,1.2707813,a,True
PE05CA1,19,gestures/cat_S.mp4,ta_l,i,G,cat,1.0,18.0,2.1370997,i,True
PE05CA1,20,gestures/dog_S.mp4,n_ck,e,G,dog,1.0,19.0,2.5837154,e,True
PE05CA1,21,gestures/frog_S.mp4,list_n,e,G,frog,1.0,20.0,3.001622,i,False
PE05CA1,22,gestures/frog_S.mp4,tong_e,u,G,frog,1.0,21.0,7.567253,a,False
PE05CA1,23,gestures/horse_S.mp4,k_ck,i,G,horse,1.0,22.0,1.3601875,i,True
PE05CA1,24,gestures/cat_S.mp4,sl_ep,e,G,cat,1.0,23.0,1.4691252,e,True
PE05CA1,25,gestures/baby_S.mp4,sm_le,i,G,baby,1.0,24.0,1.4596092,i,True
PE05CA1,26,gestures/baby_S.mp4,t_ddy,e,G,baby,1.0,25.0,1.26594,e,True
PE05CA1,27,gestures/girl_S.mp4,ha_r,i,G,girl,1.0,26.0,1.7581582,i,True
PE05CA1,28,gestures/cat_S.mp4,n_se,o,G,cat,1.0,27.0,1.7276092,o,True
PE05CA1,29,gestures/car_S.mp4,cr_sh,a,G,car,1.0,28.0,1.3560016,u,False
PE05CA1,30,gestures/dog_S.mp4,b_rk,a,G,dog,1.0,29.0,3.78575,a,True
PE05CA1,31,gestures/dog_S.mp4,to_th,o,G,dog,1.0,30.0,1.9612814,o,True
PE05CA1,32,gestures/baby_S.mp4,cr_wl,a,G,baby,1.0,31.0,3.928816,o,False
PE05CA1,33,gestures/cat_PL.mp4,lo_k,o,S,cat,1.0,32.0,2.1605062,o,True
PE05CA1,34,gestures/dog_POS.mp4,n_ck,e,S,dog,1.0,33.0,2.2507865,e,True
PE05CA1,35,gestures/girl_PL.mp4,wh_stle,i,S,girl,1.0,34.0,2.2849474,i,True
PE05CA1,36,gestures/frog_PL.mp4,list_n,e,S,frog,1.0,35.0,2.1935215,i,False
PE05CA1,37,gestures/car_PL.mp4,cr_sh,a,S,car,1.0,36.0,1.5322126,a,True
PE05CA1,38,gestures/cat_POS.mp4,ta_l,i,S,cat,1.0,37.0,1.8011476,i,True
PE05CA1,39,gestures/cat_POS.mp4,n_se,o,S,cat,1.0,38.0,1.5837666,o,True
PE05CA1,40,gestures/boy_PL.mp4,w_ve,a,S,boy,1.0,39.0,1.7335246,a,True
PE05CA1,41,gestures/horse_POS.mp4,h_ad,e,S,horse,1.0,40.0,2.7024305,e,True
PE05CA1,42,gestures/car_POS.mp4,whe_l,e,S,car,1.0,41.0,5.149897,e,True
PE05CA1,43,gestures/baby_PL.mp4,sm_le,i,S,baby,1.0,42.0,1.5642247,i,True
PE05CA1,44,gestures/dog_PL.mp4,pl_y,a,S,dog,1.0,43.0,1.6631457,a,True
PE05CA1,45,gestures/girl_POS.mp4,dr_ss,e,S,girl,1.0,44.0,1.9143686,e,True
PE05CA1,46,gestures/baby_PL.mp4,cr_wl,a,S,baby,1.0,45.0,1.88083,a,True
PE05CA1,47,gestures/dog_PL.mp4,b_rk,a,S,dog,1.0,46.0,1.5344349,a,True
PE05CA1,48,gestures/frog_PL.mp4,j_mp,u,S,frog,1.0,47.0,1.5816106,u,True
PE05CA1,49,gestures/girl_PL.mp4,h_g,u,S,girl,1.0,48.0,1.5265642,u,True
PE05CA1,50,gestures/dog_POS.mp4,to_th,o,S,dog,1.0,49.0,1.5849439,o,True
PE05CA1,51,gestures/boy_POS.mp4,bo_k,o,S,boy,1.0,50.0,1.6528901,o,True
PE05CA1,52,gestures/baby_POS.mp4,t_ddy,e,S,baby,1.0,51.0,1.5992359,e,True
PE05CA1,53,gestures/boy_POS.mp4,t-sh_rt,i,S,boy,1.0,52.0,1.9219611,i,True
PE05CA1,54,gestures/frog_POS.mp4,fo_t,o,S,frog,1.0,53.0,7.425115,o,True
PE05CA1,55,gestures/horse_PL.mp4,k_ck,i,S,horse,1.0,54.0,1.6802104,i,True
PE05CA1,56,gestures/girl_POS.mp4,ha_r,i,S,girl,1.0,55.0,1.590678,i,True
PE05CA1,57,gestures/horse_POS.mp4,mo_th,u,S,horse,1.0,56.0,4.377604,u,True
PE05CA1,58,gestures/boy_PL.mp4,po_nt,i,S,boy,1.0,57.0,1.5618135,i,True
PE05CA1,59,gestures/car_POS.mp4,wind_w,o,S,car,1.0,58.0,8.161435,e,False
PE05CA1,60,gestures/cat_PL.mp4,sl_ep,e,S,cat,1.0,59.0,1.7813598,e,True
PE05CA1,61,gestures/frog_POS.mp4,tong_e,u,S,frog,1.0,60.0,5.116313,u,True
PE05CA1,62,gestures/horse_PL.mp4,w_lk,a,S,horse,1.0,61.0,1.7168242,a,True
PE05CA1,63,gestures/baby_POS.mp4,bl_nket,a,S,baby,1.0,62.0,1.6914816,a,True
PE05CA1,64,gestures/car_PL.mp4,m_ve,o,S,car,1.0,63.0,1.8732835,o,True
