subject,TrialNumber,gestures,target,corrAns,condition,gestureSet,ran,order,RT,answer,correct
SO13CH2,1,gestures/frog_POS.mp4,tong_e,u,S,frog,1.0,0.0,1.6939352,u,True
SO13CH2,2,gestures/car_PL.mp4,m_ve,o,S,car,1.0,1.0,1.2954524,o,True
SO13CH2,3,gestures/dog_POS.mp4,n_ck,e,S,dog,1.0,2.0,1.2871101,e,True
SO13CH2,4,gestures/horse_POS.mp4,mo_th,u,S,horse,1.0,3.0,1.3797953,u,True
SO13CH2,5,gestures/cat_PL.mp4,sl_ep,e,S,cat,1.0,4.0,0.97506315,e,True
SO13CH2,6,gestures/dog_POS.mp4,to_th,o,S,dog,1.0,5.0,2.9767985,o,True
SO13CH2,7,gestures/dog_PL.mp4,pl_y,a,S,dog,1.0,6.0,1.6561292,a,True
SO13CH2,8,gestures/car_PL.mp4,cr_sh,a,S,car,1.0,7.0,1.6023427,a,True
SO13CH2,9,gestures/horse_PL.mp4,w_lk,a,S,horse,1.0,8.0,1.328315,a,True
SO13CH2,10,gestures/girl_POS.mp4,dr_ss,e,S,girl,1.0,9.0,1.3280499,e,True
SO13CH2,11,gestures/car_POS.mp4,wind_w,o,S,car,1.0,10.0,1.7974603,o,True
SO13CH2,12,gestures/girl_PL.mp4,h_g,u,S,girl,1.0,11.0,3.4634213,u,True
SO13CH2,13,gestures/cat_POS.mp4,n_se,o,S,cat,1.0,12.0,6.2679095,o,True
SO13CH2,14,gestures/boy_POS.mp4,t-sh_rt,i,S,boy,1.0,13.0,2.012493,i,True
SO13CH2,15,gestures/frog_POS.mp4,fo_t,o,S,frog,1.0,14.0,2.274502,u,False
SO13CH2,16,gestures/cat_PL.mp4,lo_k,o,S,cat,1.0,15.0,1.0421985,o,True
SO13CH2,17,gestures/cat_POS.mp4,ta_l,i,S,cat,1.0,16.0,1.1372958,i,True
SO13CH2,18,gestures/baby_PL.mp4,sm_le,i,S,baby,1.0,17.0,1.1574163,i,True
SO13CH2,19,gestures/horse_POS.mp4,h_ad,e,S,horse,1.0,18.0,2.240996,e,True
SO13CH2,20,gestures/baby_PL.mp4,cr_wl,a,S,baby,1.0,19.0,1.1127052,a,True
SO13CH2,21,gestures/horse_PL.mp4,k_ck,i,S,horse,1.0,20.0,1.5806414,i,True
SO13CH2,22,gestures/baby_POS.mp4,bl_nket,a,S,baby,1.0,21.0,2.3278942,a,True
SO13CH2,23,gestures/frog_PL.mp4,j_mp,u,S,frog,1.0,22.0,2.1476474,u,True
SO13CH2,24,gestures/car_POS.mp4,whe_l,e,S,car,1.0,23.0,1.8921483,e,True
SO13CH2,25,gestures/boy_POS.mp4,bo_k,o,S,boy,1.0,24.0,1.9907413,o,True
SO13CH2,26,gestures/frog_PL.mp4,list_n,e,S,frog,1.0,25.0,1.9702312,e,True
SO13CH2,27,gestures/girl_POS.mp4,ha_r,i,S,girl,1.0,26.0,1.8628154,i,True
SO13CH2,28,gestures/boy_PL.mp4,w_ve,a,S,boy,1.0,27.0,1.8269787,a,True
SO13CH2,29,gestures/baby_POS.mp4,t_ddy,e,S,baby,1.0,28.0,1.1639695,e,True
SO13CH2,30,gestures/girl_PL.mp4,wh_stle,i,S,girl,1.0,29.0,1.4284638,i,True
SO13CH2,31,gestures/boy_PL.mp4,po_nt,i,S,boy,1.0,30.0,1.1212914,u,False
SO13CH2,32,gestures/dog_PL.mp4,b_rk,a,S,dog,1.0,31.0,5.9311337,a,True
SO13CH2,33,gestures/horse_S.mp4,mo_th,u,G,horse,0.0,--,--,--,--
SO13CH2,34,gestures/boy_S.mp4,po_nt,i,G,boy,0.0,--,--,--,--
SO13CH2,35,gestures/cat_S.mp4,n_se,o,G,cat,0.0,--,--,--,--
SO13CH2,36,gestures/car_S.mp4,m_ve,o,G,car,0.0,--,--,--,--
SO13CH2,37,gestures/cat_S.mp4,lo_k,o,G,cat,0.0,--,--,--,--
SO13CH2,38,gestures/frog_S.mp4,list_n,e,G,frog,0.0,--,--,--,--
SO13CH2,39,gestures/cat_S.mp4,sl_ep,e,G,cat,0.0,--,--,--,--
SO13CH2,40,gestures/horse_S.mp4,k_ck,i,G,horse,0.0,--,--,--,--
SO13CH2,41,gestures/dog_S.mp4,n_ck,e,G,dog,0.0,--,--,--,--
SO13CH2,42,gestures/baby_S.mp4,t_ddy,e,G,baby,0.0,--,--,--,--
SO13CH2,43,gestures/dog_S.mp4,b_rk,a,G,dog,0.0,--,--,--,--
SO13CH2,44,gestures/car_S.mp4,wind_w,o,G,car,0.0,--,--,--,--
SO13CH2,45,gestures/girl_S.mp4,ha_r,i,G,girl,0.0,--,--,--,--
SO13CH2,46,gestures/car_S.mp4,cr_sh,a,G,car,0.0,--,--,--,--
SO13CH2,47,gestures/girl_S.mp4,dr_ss,e,G,girl,0.0,--,--,--,--
SO13CH2,48,gestures/dog_S.mp4,pl_y,a,G,dog,0.0,--,--,--,--
SO13CH2,49,gestures/girl_S.mp4,wh_stle,i,G,girl,0.0,--,--,--,--
SO13CH2,50,gestures/horse_S.mp4,w_lk,a,G,horse,0.0,--,--,--,--
SO13CH2,51,gestures/baby_S.mp4,sm_le,i,G,baby,0.0,--,--,--,--
SO13CH2,52,gestures/baby_S.mp4,cr_wl,a,G,baby,0.0,--,--,--,--
SO13CH2,53,gestures/baby_S.mp4,bl_nket,a,G,baby,0.0,--,--,--,--
SO13CH2,54,gestures/boy_S.mp4,w_ve,a,G,boy,0.0,--,--,--,--
SO13CH2,55,gestures/boy_S.mp4,t-sh_rt,i,G,boy,0.0,--,--,--,--
SO13CH2,56,gestures/girl_S.mp4,h_g,u,G,girl,0.0,--,--,--,--
SO13CH2,57,gestures/frog_S.mp4,tong_e,u,G,frog,0.0,--,--,--,--
SO13CH2,58,gestures/car_S.mp4,whe_l,e,G,car,0.0,--,--,--,--
SO13CH2,59,gestures/cat_S.mp4,ta_l,i,G,cat,0.0,--,--,--,--
SO13CH2,60,gestures/boy_S.mp4,bo_k,o,G,boy,0.0,--,--,--,--
SO13CH2,61,gestures/dog_S.mp4,to_th,o,G,dog,0.0,--,--,--,--
SO13CH2,62,gestures/horse_S.mp4,h_ad,e,G,horse,0.0,--,--,--,--
SO13CH2,63,gestures/frog_S.mp4,j_mp,u,G,frog,0.0,--,--,--,--
SO13CH2,64,gestures/frog_S.mp4,fo_t,o,G,frog,0.0,--,--,--,--
