subject,TrialNumber,gestures,target,corrAns,condition,gestureSet,ran,order,RT,answer,correct
SO13CH1,1,gestures/horse_S.mp4,k_ck,i,G,horse,1.0,0.0,1.5801362,i,True
SO13CH1,2,gestures/baby_S.mp4,t_ddy,e,G,baby,1.0,1.0,1.6870621,e,True
SO13CH1,3,gestures/baby_S.mp4,sm_le,i,G,baby,1.0,2.0,2.2711835,i,True
SO13CH1,4,gestures/car_S.mp4,cr_sh,a,G,car,1.0,3.0,1.6006218,a,True
SO13CH1,5,gestures/girl_S.mp4,h_g,u,G,girl,1.0,4.0,1.5655646,u,True
SO13CH1,6,gestures/baby_S.mp4,cr_wl,a,G,baby,1.0,5.0,2.1547093,a,True
SO13CH1,7,gestures/dog_S.mp4,n_ck,e,G,dog,1.0,6.0,1.9682908,a,False
SO13CH1,8,gestures/frog_S.mp4,j_mp,u,G,frog,1.0,7.0,1.2010993,u,True
SO13CH1,9,gestures/cat_S.mp4,ta_l,i,G,cat,1.0,8.0,1.3863441,i,True
SO13CH1,10,gestures/cat_S.mp4,n_se,o,G,cat,1.0,9.0,1.375204,o,True
SO13CH1,11,gestures/horse_S.mp4,mo_th,u,G,horse,1.0,10.0,1.7202457,u,True
SO13CH1,12,gestures/boy_S.mp4,t-sh_rt,i,G,boy,1.0,11.0,1.6134686,i,True
SO13CH1,13,gestures/car_S.mp4,whe_l,e,G,car,1.0,12.0,1.2501824,e,True
SO13CH1,14,gestures/boy_S.mp4,bo_k,o,G,boy,1.0,13.0,1.195613,o,True
SO13CH1,15,gestures/dog_S.mp4,b_rk,a,G,dog,1.0,14.0,6.82216,i,False
SO13CH1,16,gestures/dog_S.mp4,pl_y,a,G,dog,1.0,15.0,1.2009702,a,True
SO13CH1,17,gestures/girl_S.mp4,ha_r,i,G,girl,1.0,16.0,6.0103974,e,False
SO13CH1,18,gestures/cat_S.mp4,sl_ep,e,G,cat,1.0,17.0,1.3345214,e,True
SO13CH1,19,gestures/frog_S.mp4,fo_t,o,G,frog,1.0,18.0,1.6892289,o,True
SO13CH1,20,gestures/car_S.mp4,wind_w,o,G,car,1.0,19.0,1.285383,o,True
SO13CH1,21,gestures/girl_S.mp4,wh_stle,i,G,girl,1.0,20.0,3.3082337,e,False
SO13CH1,22,gestures/dog_S.mp4,to_th,o,G,dog,1.0,21.0,1.78977,o,True
SO13CH1,23,gestures/girl_S.mp4,dr_ss,e,G,girl,1.0,22.0,1.3024058,e,True
SO13CH1,24,gestures/frog_S.mp4,tong_e,u,G,frog,1.0,23.0,1.5372856,u,True
SO13CH1,25,gestures/boy_S.mp4,w_ve,a,G,boy,1.0,24.0,1.7218903,a,True
SO13CH1,26,gestures/baby_S.mp4,bl_nket,a,G,baby,1.0,25.0,1.1956502,a,True
SO13CH1,27,gestures/horse_S.mp4,h_ad,e,G,horse,1.0,26.0,1.345981,e,True
SO13CH1,28,gestures/frog_S.mp4,list_n,e,G,frog,1.0,27.0,2.1602414,i,False
SO13CH1,29,gestures/car_S.mp4,m_ve,o,G,car,1.0,28.0,1.6501194,o,True
SO13CH1,30,gestures/cat_S.mp4,lo_k,o,G,cat,1.0,29.0,1.4526726,o,True
SO13CH1,31,gestures/horse_S.mp4,w_lk,a,G,horse,1.0,30.0,1.4541603,a,True
SO13CH1,32,gestures/boy_S.mp4,po_nt,i,G,boy,1.0,31.0,1.2698689,i,True
SO13CH1,33,gestures/car_PL.mp4,m_ve,o,S,car,1.0,32.0,1.1933484,o,True
SO13CH1,34,gestures/dog_POS.mp4,to_th,o,S,dog,1.0,33.0,2.2186282,o,True
SO13CH1,35,gestures/horse_PL.mp4,k_ck,i,S,horse,1.0,34.0,0.9961902,i,True
SO13CH1,36,gestures/dog_PL.mp4,b_rk,a,S,dog,1.0,35.0,4.183774,e,False
SO13CH1,37,gestures/cat_PL.mp4,lo_k,o,S,cat,1.0,36.0,1.1088753,o,True
SO13CH1,38,gestures/horse_PL.mp4,w_lk,a,S,horse,1.0,37.0,1.3316002,a,True
SO13CH1,39,gestures/boy_PL.mp4,w_ve,a,S,boy,1.0,38.0,2.1223195,a,True
SO13CH1,40,gestures/girl_PL.mp4,wh_stle,i,S,girl,1.0,39.0,2.5386295,a,False
SO13CH1,41,gestures/girl_POS.mp4,ha_r,i,S,girl,1.0,40.0,4.364679,e,False
SO13CH1,42,gestures/frog_PL.mp4,list_n,e,S,frog,1.0,41.0,1.5075077,i,False
SO13CH1,43,gestures/horse_POS.mp4,h_ad,e,S,horse,1.0,42.0,1.9144006,e,True
SO13CH1,44,gestures/girl_POS.mp4,dr_ss,e,S,girl,1.0,43.0,1.3221362,e,True
SO13CH1,45,gestures/cat_POS.mp4,n_se,o,S,cat,1.0,44.0,1.4497683,o,True
SO13CH1,46,gestures/car_PL.mp4,cr_sh,a,S,car,1.0,45.0,1.3042729,a,True
SO13CH1,47,gestures/dog_POS.mp4,n_ck,e,S,dog,1.0,46.0,3.5785697,e,True
SO13CH1,48,gestures/frog_POS.mp4,tong_e,u,S,frog,1.0,47.0,1.2741797,u,True
SO13CH1,49,gestures/car_POS.mp4,wind_w,o,S,car,1.0,48.0,1.2663724,o,True
SO13CH1,50,gestures/frog_PL.mp4,j_mp,u,S,frog,1.0,49.0,1.0464576,u,True
SO13CH1,51,gestures/horse_POS.mp4,mo_th,u,S,horse,1.0,50.0,1.6700286,u,True
SO13CH1,52,gestures/boy_PL.mp4,po_nt,i,S,boy,1.0,51.0,1.2301154,i,True
SO13CH1,53,gestures/girl_PL.mp4,h_g,u,S,girl,1.0,52.0,1.2521381,u,True
SO13CH1,54,gestures/cat_PL.mp4,sl_ep,e,S,cat,1.0,53.0,1.2959386,e,True
SO13CH1,55,gestures/car_POS.mp4,whe_l,e,S,car,1.0,54.0,1.0385983,e,True
SO13CH1,56,gestures/dog_PL.mp4,pl_y,a,S,dog,1.0,55.0,1.2186927,a,True
SO13CH1,57,gestures/baby_POS.mp4,bl_nket,a,S,baby,1.0,56.0,1.4019595,a,True
SO13CH1,58,gestures/baby_PL.mp4,sm_le,i,S,baby,1.0,57.0,1.7749624,i,True
SO13CH1,59,gestures/boy_POS.mp4,t-sh_rt,i,S,boy,1.0,58.0,1.653159,i,True
SO13CH1,60,gestures/frog_POS.mp4,fo_t,o,S,frog,1.0,59.0,1.484862,o,True
SO13CH1,61,gestures/boy_POS.mp4,bo_k,o,S,boy,1.0,60.0,1.1378702,o,True
SO13CH1,62,gestures/cat_POS.mp4,ta_l,i,S,cat,1.0,61.0,1.3153403,i,True
SO13CH1,63,gestures/baby_POS.mp4,t_ddy,e,S,baby,1.0,62.0,1.3238087,e,True
SO13CH1,64,gestures/baby_PL.mp4,cr_wl,a,S,baby,1.0,63.0,1.8316989,a,True
