subject,TrialNumber,gestures,target,corrAns,condition,gestureSet,ran,order,RT,answer,correct
SU04DI1,1,gestures/girl_S.mp4,ha_r,i,G,girl,1.0,0.0,2.214117,i,True
SU04DI1,2,gestures/cat_S.mp4,lo_k,o,G,cat,1.0,1.0,1.4784479,o,True
SU04DI1,3,gestures/horse_S.mp4,mo_th,u,G,horse,1.0,2.0,2.048796,u,True
SU04DI1,4,gestures/baby_S.mp4,bl_nket,a,G,baby,1.0,3.0,4.009368,u,False
SU04DI1,5,gestures/girl_S.mp4,h_g,u,G,girl,1.0,4.0,1.536874,u,True
SU04DI1,6,gestures/cat_S.mp4,n_se,o,G,cat,1.0,5.0,1.5909897,o,True
SU04DI1,7,gestures/girl_S.mp4,dr_ss,e,G,girl,1.0,6.0,1.6911688,e,True
SU04DI1,8,gestures/boy_S.mp4,t-sh_rt,i,G,boy,1.0,7.0,2.673561,i,True
SU04DI1,9,gestures/car_S.mp4,whe_l,e,G,car,1.0,8.0,1.6595682,e,True
SU04DI1,10,gestures/baby_S.mp4,t_ddy,e,G,baby,1.0,9.0,1.7620451,e,True
SU04DI1,11,gestures/horse_S.mp4,h_ad,e,G,horse,1.0,10.0,1.3315378,e,True
SU04DI1,12,gestures/frog_S.mp4,fo_t,o,G,frog,1.0,11.0,1.6406605,o,True
SU04DI1,13,gestures/dog_S.mp4,to_th,o,G,dog,1.0,12.0,2.161078,o,True
SU04DI1,14,gestures/dog_S.mp4,b_rk,a,G,dog,1.0,13.0,1.6710409,a,True
SU04DI1,15,gestures/boy_S.mp4,po_nt,i,G,boy,1.0,14.0,1.8989238,u,False
SU04DI1,16,gestures/frog_S.mp4,list_n,e,G,frog,1.0,15.0,2.4506521,e,True
SU04DI1,17,gestures/girl_S.mp4,wh_stle,i,G,girl,1.0,16.0,1.381549,i,True
SU04DI1,18,gestures/car_S.mp4,wind_w,o,G,car,1.0,17.0,1.5428518,o,True
SU04DI1,19,gestures/car_S.mp4,m_ve,o,G,car,1.0,18.0,1.2953643,o,True
SU04DI1,20,gestures/baby_S.mp4,sm_le,i,G,baby,1.0,19.0,1.2897455,i,True
SU04DI1,21,gestures/horse_S.mp4,w_lk,a,G,horse,1.0,20.0,1.5623446,a,True
SU04DI1,22,gestures/frog_S.mp4,j_mp,u,G,frog,1.0,21.0,1.2213165,u,True
SU04DI1,23,gestures/frog_S.mp4,tong_e,u,G,frog,1.0,22.0,2.9953413,a,False
SU04DI1,24,gestures/car_S.mp4,cr_sh,a,G,car,1.0,23.0,1.4823567,a,True
SU04DI1,25,gestures/horse_S.mp4,k_ck,i,G,horse,1.0,24.0,2.611187,o,False
SU04DI1,26,gestures/dog_S.mp4,pl_y,a,G,dog,1.0,25.0,1.1124787,a,True
SU04DI1,27,gestures/cat_S.mp4,ta_l,i,G,cat,1.0,26.0,1.6315525,i,True
SU04DI1,28,gestures/boy_S.mp4,bo_k,o,G,boy,1.0,27.0,1.4584383,o,True
SU04DI1,29,gestures/dog_S.mp4,n_ck,e,G,dog,1.0,28.0,1.6017134,i,False
SU04DI1,30,gestures/boy_S.mp4,w_ve,a,G,boy,1.0,29.0,1.6864413,o,False
SU04DI1,31,gestures/baby_S.mp4,cr_wl,a,G,baby,1.0,30.0,1.5347952,a,True
SU04DI1,32,gestures/cat_S.mp4,sl_ep,e,G,cat,1.0,31.0,1.1968696,e,True
SU04DI1,33,gestures/girl_POS.mp4,dr_ss,e,S,girl,1.0,32.0,1.5053614,e,True
SU04DI1,34,gestures/horse_PL.mp4,w_lk,a,S,horse,1.0,33.0,1.3743895,a,True
SU04DI1,35,gestures/horse_POS.mp4,h_ad,e,S,horse,1.0,34.0,1.3262943,e,True
SU04DI1,36,gestures/frog_POS.mp4,fo_t,o,S,frog,1.0,35.0,1.5670476,o,True
SU04DI1,37,gestures/boy_PL.mp4,po_nt,i,S,boy,1.0,36.0,1.3031311,i,True
SU04DI1,38,gestures/cat_PL.mp4,sl_ep,e,S,cat,1.0,37.0,1.0765747,e,True
SU04DI1,39,gestures/girl_POS.mp4,ha_r,i,S,girl,1.0,38.0,1.2946934,i,True
SU04DI1,40,gestures/cat_POS.mp4,ta_l,i,S,cat,1.0,39.0,1.2298199,i,True
SU04DI1,41,gestures/dog_POS.mp4,n_ck,e,S,dog,1.0,40.0,1.1395841,e,True
SU04DI1,42,gestures/cat_POS.mp4,n_se,o,S,cat,1.0,41.0,1.1841263,o,True
SU04DI1,43,gestures/girl_PL.mp4,h_g,u,S,girl,1.0,42.0,1.1703296,u,True
SU04DI1,44,gestures/frog_PL.mp4,j_mp,u,S,frog,1.0,43.0,1.1756676,u,True
SU04DI1,45,gestures/baby_POS.mp4,bl_nket,a,S,baby,1.0,44.0,2.132733,u,False
SU04DI1,46,gestures/frog_POS.mp4,tong_e,u,S,frog,1.0,45.0,1.3698236,i,False
SU04DI1,47,gestures/car_PL.mp4,m_ve,o,S,car,1.0,46.0,1.1142958,o,True
SU04DI1,48,gestures/boy_POS.mp4,t-sh_rt,i,S,boy,1.0,47.0,1.3846338,i,True
SU04DI1,49,gestures/boy_PL.mp4,w_ve,a,S,boy,1.0,48.0,1.5485976,o,False
SU04DI1,50,gestures/car_POS.mp4,wind_w,o,S,car,1.0,49.0,1.2747847,o,True
SU04DI1,51,gestures/horse_PL.mp4,k_ck,i,S,horse,1.0,50.0,1.7157,i,True
SU04DI1,52,gestures/cat_PL.mp4,lo_k,o,S,cat,1.0,51.0,1.1137115,o,True
SU04DI1,53,gestures/baby_PL.mp4,sm_le,i,S,baby,1.0,52.0,1.1023368,i,True
SU04DI1,54,gestures/girl_PL.mp4,wh_stle,i,S,girl,1.0,53.0,1.2564073,i,True
SU04DI1,55,gestures/frog_PL.mp4,list_n,e,S,frog,1.0,54.0,1.6407958,i,False
SU04DI1,56,gestures/horse_POS.mp4,mo_th,u,S,horse,1.0,55.0,1.793507,o,False
SU04DI1,57,gestures/baby_PL.mp4,cr_wl,a,S,baby,1.0,56.0,1.4831572,a,True
SU04DI1,58,gestures/car_POS.mp4,whe_l,e,S,car,1.0,57.0,2.666158,e,True
SU04DI1,59,gestures/dog_PL.mp4,b_rk,a,S,dog,1.0,58.0,1.8922312,e,False
SU04DI1,60,gestures/car_PL.mp4,cr_sh,a,S,car,1.0,59.0,1.5244769,a,True
SU04DI1,61,gestures/dog_PL.mp4,pl_y,a,S,dog,1.0,60.0,1.3356044,a,True
SU04DI1,62,gestures/baby_POS.mp4,t_ddy,e,S,baby,1.0,61.0,1.279886,e,True
SU04DI1,63,gestures/boy_POS.mp4,bo_k,o,S,boy,1.0,62.0,1.1534727,o,True
SU04DI1,64,gestures/dog_POS.mp4,to_th,o,S,dog,1.0,63.0,1.2654792,o,True
