subject,TrialNumber,gestures,target,corrAns,condition,gestureSet,ran,order,RT,answer,correct
B19,1,gestures/car_S.mp4,cr_sh,a,G,car,1,0,1.4681816,a,True
B19,2,gestures/dog_S.mp4,b_rk,a,G,dog,1,1,1.0339347,a,True
B19,3,gestures/dog_S.mp4,pl_y,a,G,dog,1,2,1.1155323,a,True
B19,4,gestures/boy_S.mp4,bo_k,o,G,boy,1,3,1.3211138,o,True
B19,5,gestures/cat_S.mp4,sl_ep,e,G,cat,1,4,1.2494689,e,True
B19,6,gestures/frog_S.mp4,list_n,e,G,frog,1,5,1.2920862,e,True
B19,7,gestures/cat_S.mp4,ta_l,i,G,cat,1,6,2.7513068,i,True
B19,8,gestures/boy_S.mp4,t-sh_rt,i,G,boy,1,7,1.7771016,i,True
B19,9,gestures/baby_S.mp4,bl_nket,a,G,baby,1,8,1.3281007,a,True
B19,10,gestures/cat_S.mp4,n_se,o,G,cat,1,9,1.2291476,o,True
B19,11,gestures/horse_S.mp4,mo_th,u,G,horse,1,10,1.514399,u,True
B19,12,gestures/frog_S.mp4,fo_t,o,G,frog,1,11,2.5770042,o,True
B19,13,gestures/car_S.mp4,m_ve,o,G,car,1,12,1.5134317,o,True
B19,14,gestures/girl_S.mp4,dr_ss,e,G,girl,1,13,1.2489247,e,True
B19,15,gestures/girl_S.mp4,wh_stle,i,G,girl,1,14,1.9184523,i,True
B19,16,gestures/boy_S.mp4,po_nt,i,G,boy,1,15,1.0477316,i,True
B19,17,gestures/cat_S.mp4,lo_k,o,G,cat,1,16,1.4936103,o,True
B19,18,gestures/horse_S.mp4,k_ck,i,G,horse,1,17,1.3684418,i,True
B19,19,gestures/girl_S.mp4,ha_r,i,G,girl,1,18,1.207225,i,True
B19,20,gestures/baby_S.mp4,sm_le,i,G,baby,1,19,1.4771307,i,True
B19,21,gestures/boy_S.mp4,w_ve,a,G,boy,1,20,1.5671976,o,False
B19,22,gestures/horse_S.mp4,w_lk,a,G,horse,1,21,1.2932249,a,True
B19,23,gestures/frog_S.mp4,j_mp,u,G,frog,1,22,1.329954,u,True
B19,24,gestures/girl_S.mp4,h_g,u,G,girl,1,23,1.0936123,u,True
B19,25,gestures/baby_S.mp4,t_ddy,e,G,baby,1,24,1.2723827,e,True
B19,26,gestures/car_S.mp4,wind_w,o,G,car,1,25,1.6626892,o,True
B19,27,gestures/car_S.mp4,whe_l,e,G,car,1,26,1.7205943,e,True
B19,28,gestures/dog_S.mp4,to_th,o,G,dog,1,27,1.5495543,u,False
B19,29,gestures/dog_S.mp4,n_ck,e,G,dog,1,28,1.2139194,e,True
B19,30,gestures/frog_S.mp4,tong_e,u,G,frog,1,29,1.4648902,u,True
B19,31,gestures/horse_S.mp4,h_ad,e,G,horse,1,30,1.2969776,e,True
B19,32,gestures/baby_S.mp4,cr_wl,a,G,baby,1,31,1.1250889,a,True
B19,33,gestures/horse_PL.mp4,w_lk,a,S,horse,1,32,1.1571367,a,True
B19,34,gestures/boy_POS.mp4,t-sh_rt,i,S,boy,1,33,1.2438183,i,True
B19,35,gestures/girl_PL.mp4,h_g,u,S,girl,1,34,1.1798949,u,True
B19,36,gestures/frog_POS.mp4,tong_e,u,S,frog,1,35,1.2127379,u,True
B19,37,gestures/car_POS.mp4,wind_w,o,S,car,1,36,1.3313961,o,True
B19,38,gestures/baby_POS.mp4,bl_nket,a,S,baby,1,37,1.0241119,a,True
B19,39,gestures/girl_POS.mp4,dr_ss,e,S,girl,1,38,1.0191559,e,True
B19,40,gestures/cat_PL.mp4,lo_k,o,S,cat,1,39,1.293952,o,True
B19,41,gestures/horse_PL.mp4,k_ck,i,S,horse,1,40,1.1750618,i,True
B19,42,gestures/baby_POS.mp4,t_ddy,e,S,baby,1,41,0.97577906,e,True
B19,43,gestures/car_POS.mp4,whe_l,e,S,car,1,42,1.1313702,e,True
B19,44,gestures/frog_PL.mp4,j_mp,u,S,frog,1,43,1.1512413,u,True
B19,45,gestures/boy_POS.mp4,bo_k,o,S,boy,1,44,1.3300675,o,True
B19,46,gestures/horse_POS.mp4,h_ad,e,S,horse,1,45,1.0353761,e,True
B19,47,gestures/dog_PL.mp4,b_rk,a,S,dog,1,46,1.1424652,a,True
B19,48,gestures/dog_POS.mp4,to_th,o,S,dog,1,47,1.34367,o,True
B19,49,gestures/frog_PL.mp4,list_n,e,S,frog,1,48,1.2851424,e,True
B19,50,gestures/girl_POS.mp4,ha_r,i,S,girl,1,49,1.5700237,i,True
B19,51,gestures/car_PL.mp4,cr_sh,a,S,car,1,50,1.040083,a,True
B19,52,gestures/cat_PL.mp4,sl_ep,e,S,cat,1,51,1.0658588,e,True
B19,53,gestures/baby_PL.mp4,cr_wl,a,S,baby,1,52,0.8875637,a,True
B19,54,gestures/car_PL.mp4,m_ve,o,S,car,1,53,1.5851008,a,False
B19,55,gestures/frog_POS.mp4,fo_t,o,S,frog,1,54,1.2811385,o,True
B19,56,gestures/dog_PL.mp4,pl_y,a,S,dog,1,55,0.9693385,a,True
B19,57,gestures/baby_PL.mp4,sm_le,i,S,baby,1,56,1.3691051,i,True
B19,58,gestures/cat_POS.mp4,ta_l,i,S,cat,1,57,1.126725,i,True
B19,59,gestures/girl_PL.mp4,wh_stle,i,S,girl,1,58,1.124739,i,True
B19,60,gestures/boy_PL.mp4,w_ve,a,S,boy,1,59,1.641101,a,True
B19,61,gestures/boy_PL.mp4,po_nt,i,S,boy,1,60,1.0897676,i,True
B19,62,gestures/cat_POS.mp4,n_se,o,S,cat,1,61,1.2554508,o,True
B19,63,gestures/horse_POS.mp4,mo_th,u,S,horse,1,62,1.5577546,u,True
B19,64,gestures/dog_POS.mp4,n_ck,e,S,dog,1,63,2.245736,e,True
