,subject,TrialNumber,gestures,target,corrAns,condition,gestureSet,ran,order,RT,answer,correct
1,A15,1,gestures/cat_PL.mp4,lo_k,o,S,cat,1,0,1.8211184,o,TRUE
2,A15,2,gestures/baby_PL.mp4,cr_wl,a,S,baby,1,1,1.7155373,a,TRUE
3,A15,3,gestures/car_PL.mp4,m_ve,o,S,car,1,2,1.4852145,o,TRUE
4,A15,4,gestures/dog_PL.mp4,pl_y,a,S,dog,1,3,1.4015667,a,TRUE
5,A15,5,gestures/dog_POS.mp4,to_th,o,S,dog,1,4,1.559297,o,TRUE
6,A15,6,gestures/dog_POS.mp4,n_ck,e,S,dog,1,5,1.9332104,a,FALSE
7,A15,7,gestures/boy_POS.mp4,t-sh_rt,i,S,boy,1,6,1.8978913,i,TRUE
8,A15,8,gestures/frog_PL.mp4,j_mp,u,S,frog,1,7,2.0749607,u,TRUE
9,A15,9,gestures/car_POS.mp4,wind_w,o,S,car,1,8,1.5017177,o,TRUE
10,A15,10,gestures/cat_POS.mp4,n_se,o,S,cat,1,9,1.802857,o,TRUE
11,A15,11,gestures/baby_POS.mp4,bl_nket,a,S,baby,1,10,1.342331,a,TRUE
12,A15,12,gestures/dog_PL.mp4,b_rk,a,S,dog,1,11,2.6608682,a,TRUE
13,A15,13,gestures/baby_POS.mp4,t_ddy,e,S,baby,1,12,1.323906,a,FALSE
14,A15,14,gestures/cat_PL.mp4,sl_ep,e,S,cat,1,13,2.5949557,e,TRUE
15,A15,15,gestures/boy_PL.mp4,w_ve,a,S,boy,1,14,1.4554316,a,TRUE
16,A15,16,gestures/girl_PL.mp4,wh_stle,i,S,girl,1,15,1.4807714,i,TRUE
17,A15,17,gestures/girl_POS.mp4,ha_r,i,S,girl,1,16,1.7559372,i,TRUE
18,A15,18,gestures/car_POS.mp4,whe_l,e,S,car,1,17,2.0382361,e,TRUE
19,A15,19,gestures/cat_POS.mp4,ta_l,i,S,cat,1,18,11.014557,i,TRUE
20,A15,20,gestures/baby_PL.mp4,sm_le,i,S,baby,1,19,1.5674272,i,TRUE
21,A15,21,gestures/horse_PL.mp4,w_lk,a,S,horse,1,20,1.34619,a,TRUE
22,A15,22,gestures/car_PL.mp4,cr_sh,a,S,car,1,21,1.5043906,a,TRUE
23,A15,23,gestures/girl_POS.mp4,dr_ss,e,S,girl,1,22,1.5775082,e,TRUE
24,A15,24,gestures/horse_POS.mp4,mo_th,u,S,horse,1,23,2.8877854,u,TRUE
25,A15,25,gestures/frog_POS.mp4,tong_e,u,S,frog,1,24,2.2846513,u,TRUE
26,A15,26,gestures/boy_POS.mp4,bo_k,o,S,boy,1,25,1.3968703,o,TRUE
27,A15,27,gestures/girl_PL.mp4,h_g,u,S,girl,1,26,1.9586724,u,TRUE
28,A15,28,gestures/boy_PL.mp4,po_nt,i,S,boy,1,27,1.9115688,i,TRUE
29,A15,29,gestures/horse_POS.mp4,h_ad,e,S,horse,1,28,3.200624,e,TRUE
30,A15,30,gestures/horse_PL.mp4,k_ck,i,S,horse,1,29,1.5754685,i,TRUE
31,A15,31,gestures/frog_PL.mp4,list_n,e,S,frog,1,30,3.0811207,e,TRUE
32,A15,32,gestures/frog_POS.mp4,fo_t,o,S,frog,1,31,2.114879,o,TRUE
33,A15,33,gestures/dog_S.mp4,n_ck,e,G,dog,1,32,2.6942909,e,TRUE
34,A15,34,gestures/car_S.mp4,cr_sh,a,G,car,1,33,1.198663,a,TRUE
35,A15,35,gestures/dog_S.mp4,b_rk,a,G,dog,1,34,14.691392,o,FALSE
36,A15,36,gestures/baby_S.mp4,cr_wl,a,G,baby,1,35,1.4006249,a,TRUE
37,A15,37,gestures/car_S.mp4,whe_l,e,G,car,1,36,1.5486573,e,TRUE
38,A15,38,gestures/boy_S.mp4,bo_k,o,G,boy,1,37,1.4722515,o,TRUE
39,A15,39,gestures/boy_S.mp4,w_ve,a,G,boy,1,38,1.4025164,a,TRUE
40,A15,40,gestures/cat_S.mp4,ta_l,i,G,cat,1,39,1.8325022,i,TRUE
41,A15,41,gestures/girl_S.mp4,wh_stle,i,G,girl,1,40,1.5550284,i,TRUE
42,A15,42,gestures/baby_S.mp4,sm_le,i,G,baby,1,41,1.2659317,i,TRUE
43,A15,43,gestures/boy_S.mp4,po_nt,i,G,boy,1,42,1.645361,i,TRUE
44,A15,44,gestures/cat_S.mp4,n_se,o,G,cat,1,43,1.3308591,o,TRUE
45,A15,45,gestures/girl_S.mp4,ha_r,i,G,girl,1,44,1.5607005,i,TRUE
46,A15,46,gestures/baby_S.mp4,bl_nket,a,G,baby,1,45,1.7264385,a,TRUE
47,A15,47,gestures/dog_S.mp4,pl_y,a,G,dog,1,46,1.1778909,a,TRUE
48,A15,48,gestures/frog_S.mp4,j_mp,u,G,frog,1,47,1.6299304,u,TRUE
49,A15,49,gestures/cat_S.mp4,lo_k,o,G,cat,1,48,1.3199885,o,TRUE
50,A15,50,gestures/girl_S.mp4,h_g,u,G,girl,1,49,1.6374755,u,TRUE
51,A15,51,gestures/car_S.mp4,wind_w,o,G,car,1,50,1.4200374,o,TRUE
52,A15,52,gestures/frog_S.mp4,tong_e,u,G,frog,1,51,2.1486251,u,TRUE
53,A15,53,gestures/frog_S.mp4,fo_t,o,G,frog,1,52,1.6534789,o,TRUE
54,A15,54,gestures/horse_S.mp4,w_lk,a,G,horse,1,53,1.448716,a,TRUE
55,A15,55,gestures/boy_S.mp4,t-sh_rt,i,G,boy,1,54,1.6448345,i,TRUE
56,A15,56,gestures/horse_S.mp4,mo_th,u,G,horse,1,55,1.7911294,u,TRUE
57,A15,57,gestures/horse_S.mp4,k_ck,i,G,horse,1,56,1.6069157,i,TRUE
58,A15,58,gestures/dog_S.mp4,to_th,o,G,dog,1,57,1.9849232,u,FALSE
59,A15,59,gestures/baby_S.mp4,t_ddy,e,G,baby,1,58,3.3135817,a,FALSE
60,A15,60,gestures/car_S.mp4,m_ve,o,G,car,1,59,1.6235988,o,TRUE
61,A15,61,gestures/cat_S.mp4,sl_ep,e,G,cat,1,60,2.3815053,e,TRUE
62,A15,62,gestures/frog_S.mp4,list_n,e,G,frog,1,61,1.8007617,e,TRUE
63,A15,63,gestures/girl_S.mp4,dr_ss,e,G,girl,1,62,1.5600649,e,TRUE
64,A15,64,gestures/horse_S.mp4,h_ad,e,G,horse,1,63,2.5211852,e,TRUE
65,A19,1,gestures/baby_S.mp4,cr_wl,a,G,baby,1,0,4.9287944,a,TRUE
66,A19,2,gestures/girl_S.mp4,ha_r,i,G,girl,1,1,3.1936762,i,TRUE
67,A19,3,gestures/boy_S.mp4,w_ve,a,G,boy,1,2,2.307956,a,TRUE
68,A19,4,gestures/cat_S.mp4,ta_l,i,G,cat,1,3,5.3218985,i,TRUE
69,A19,5,gestures/cat_S.mp4,n_se,o,G,cat,1,4,2.073735,o,TRUE
70,A19,6,gestures/car_S.mp4,m_ve,o,G,car,1,5,5.277809,o,TRUE
71,A19,7,gestures/frog_S.mp4,list_n,e,G,frog,1,6,4.2731,e,TRUE
72,A19,8,gestures/baby_S.mp4,t_ddy,e,G,baby,1,7,2.0994787,e,TRUE
73,A19,9,gestures/baby_S.mp4,bl_nket,a,G,baby,1,8,3.5104632,a,TRUE
74,A19,10,gestures/boy_S.mp4,bo_k,o,G,boy,1,9,2.2036417,o,TRUE
75,A19,11,gestures/car_S.mp4,cr_sh,a,G,car,1,10,2.3736258,a,TRUE
76,A19,12,gestures/horse_S.mp4,w_lk,a,G,horse,1,11,3.0511916,a,TRUE
77,A19,13,gestures/dog_S.mp4,pl_y,a,G,dog,1,12,1.7756249,a,TRUE
78,A19,14,gestures/girl_S.mp4,dr_ss,e,G,girl,1,13,1.7781936,e,TRUE
79,A19,15,gestures/cat_S.mp4,lo_k,o,G,cat,1,14,2.135034,o,TRUE
80,A19,16,gestures/frog_S.mp4,fo_t,o,G,frog,1,15,5.3029685,o,TRUE
81,A19,17,gestures/horse_S.mp4,h_ad,e,G,horse,1,16,3.7033782,e,TRUE
82,A19,18,gestures/baby_S.mp4,sm_le,i,G,baby,1,17,2.616294,i,TRUE
83,A19,19,gestures/dog_S.mp4,n_ck,e,G,dog,1,18,3.6506057,e,TRUE
84,A19,20,gestures/frog_S.mp4,j_mp,u,G,frog,1,19,2.0810018,u,TRUE
85,A19,21,gestures/girl_S.mp4,h_g,u,G,girl,1,20,2.329001,u,TRUE
86,A19,22,gestures/frog_S.mp4,tong_e,u,G,frog,1,21,3.4341936,u,TRUE
87,A19,23,gestures/horse_S.mp4,k_ck,i,G,horse,1,22,2.0141277,i,TRUE
88,A19,24,gestures/horse_S.mp4,mo_th,u,G,horse,1,23,2.822626,u,TRUE
89,A19,25,gestures/boy_S.mp4,po_nt,i,G,boy,1,24,2.555474,i,TRUE
90,A19,26,gestures/dog_S.mp4,to_th,o,G,dog,1,25,2.4458785,o,TRUE
91,A19,27,gestures/dog_S.mp4,b_rk,a,G,dog,1,26,2.1945446,a,TRUE
92,A19,28,gestures/car_S.mp4,whe_l,e,G,car,1,27,2.5572762,e,TRUE
93,A19,29,gestures/girl_S.mp4,wh_stle,i,G,girl,1,28,2.8912683,i,TRUE
94,A19,30,gestures/boy_S.mp4,t-sh_rt,i,G,boy,1,29,2.8067114,i,TRUE
95,A19,31,gestures/cat_S.mp4,sl_ep,e,G,cat,1,30,2.3227987,e,TRUE
96,A19,32,gestures/car_S.mp4,wind_w,o,G,car,1,31,2.9567268,o,TRUE
97,A19,33,gestures/boy_PL.mp4,po_nt,i,S,boy,1,32,3.1564355,i,TRUE
98,A19,34,gestures/car_POS.mp4,whe_l,e,S,car,1,33,1.9005358,e,TRUE
99,A19,35,gestures/car_POS.mp4,wind_w,o,S,car,1,34,2.1020231,o,TRUE
100,A19,36,gestures/dog_POS.mp4,to_th,o,S,dog,1,35,2.0715556,o,TRUE
101,A19,37,gestures/horse_POS.mp4,h_ad,e,S,horse,1,36,2.4555144,e,TRUE
102,A19,38,gestures/girl_PL.mp4,wh_stle,i,S,girl,1,37,2.456111,i,TRUE
103,A19,39,gestures/baby_POS.mp4,bl_nket,a,S,baby,1,38,2.1068487,a,TRUE
104,A19,40,gestures/baby_PL.mp4,sm_le,i,S,baby,1,39,2.3007684,i,TRUE
105,A19,41,gestures/cat_POS.mp4,ta_l,i,S,cat,1,40,2.460978,i,TRUE
106,A19,42,gestures/cat_PL.mp4,sl_ep,e,S,cat,1,41,1.9819951,e,TRUE
107,A19,43,gestures/horse_PL.mp4,w_lk,a,S,horse,1,42,2.2671533,a,TRUE
108,A19,44,gestures/cat_PL.mp4,lo_k,o,S,cat,1,43,3.1075938,o,TRUE
109,A19,45,gestures/car_PL.mp4,m_ve,o,S,car,1,44,2.3428533,o,TRUE
110,A19,46,gestures/frog_POS.mp4,tong_e,u,S,frog,1,45,2.627829,u,TRUE
111,A19,47,gestures/boy_PL.mp4,w_ve,a,S,boy,1,46,7.585665,a,TRUE
112,A19,48,gestures/baby_PL.mp4,cr_wl,a,S,baby,1,47,2.943194,a,TRUE
113,A19,49,gestures/dog_PL.mp4,b_rk,a,S,dog,1,48,2.5438101,a,TRUE
114,A19,50,gestures/horse_PL.mp4,k_ck,i,S,horse,1,49,3.0470536,i,TRUE
115,A19,51,gestures/dog_PL.mp4,pl_y,a,S,dog,1,50,1.7401818,a,TRUE
116,A19,52,gestures/girl_PL.mp4,h_g,u,S,girl,1,51,2.4475849,u,TRUE
117,A19,53,gestures/frog_PL.mp4,list_n,e,S,frog,1,52,2.3034494,e,TRUE
118,A19,54,gestures/frog_POS.mp4,fo_t,o,S,frog,1,53,2.3959608,o,TRUE
119,A19,55,gestures/baby_POS.mp4,t_ddy,e,S,baby,1,54,1.8312975,e,TRUE
120,A19,56,gestures/boy_POS.mp4,bo_k,o,S,boy,1,55,1.8099257,o,TRUE
121,A19,57,gestures/girl_POS.mp4,dr_ss,e,S,girl,1,56,1.9582192,e,TRUE
122,A19,58,gestures/car_PL.mp4,cr_sh,a,S,car,1,57,2.7336195,a,TRUE
123,A19,59,gestures/boy_POS.mp4,t-sh_rt,i,S,boy,1,58,2.4718175,i,TRUE
124,A19,60,gestures/dog_POS.mp4,n_ck,e,S,dog,1,59,1.8777447,e,TRUE
125,A19,61,gestures/girl_POS.mp4,ha_r,i,S,girl,1,60,2.1419907,i,TRUE
126,A19,62,gestures/horse_POS.mp4,mo_th,u,S,horse,1,61,2.7310297,u,TRUE
127,A19,63,gestures/frog_PL.mp4,j_mp,u,S,frog,1,62,4.006912,u,TRUE
128,A19,64,gestures/cat_POS.mp4,n_se,o,S,cat,1,63,2.6404526,o,TRUE
129,A19B,1,gestures/car_S.mp4,cr_sh,a,G,car,1,0,1.4681816,a,TRUE
130,A19B,2,gestures/dog_S.mp4,b_rk,a,G,dog,1,1,1.0339347,a,TRUE
131,A19B,3,gestures/dog_S.mp4,pl_y,a,G,dog,1,2,1.1155323,a,TRUE
132,A19B,4,gestures/boy_S.mp4,bo_k,o,G,boy,1,3,1.3211138,o,TRUE
133,A19B,5,gestures/cat_S.mp4,sl_ep,e,G,cat,1,4,1.2494689,e,TRUE
134,A19B,6,gestures/frog_S.mp4,list_n,e,G,frog,1,5,1.2920862,e,TRUE
135,A19B,7,gestures/cat_S.mp4,ta_l,i,G,cat,1,6,2.7513068,i,TRUE
136,A19B,8,gestures/boy_S.mp4,t-sh_rt,i,G,boy,1,7,1.7771016,i,TRUE
137,A19B,9,gestures/baby_S.mp4,bl_nket,a,G,baby,1,8,1.3281007,a,TRUE
138,A19B,10,gestures/cat_S.mp4,n_se,o,G,cat,1,9,1.2291476,o,TRUE
139,A19B,11,gestures/horse_S.mp4,mo_th,u,G,horse,1,10,1.514399,u,TRUE
140,A19B,12,gestures/frog_S.mp4,fo_t,o,G,frog,1,11,2.5770042,o,TRUE
141,A19B,13,gestures/car_S.mp4,m_ve,o,G,car,1,12,1.5134317,o,TRUE
142,A19B,14,gestures/girl_S.mp4,dr_ss,e,G,girl,1,13,1.2489247,e,TRUE
143,A19B,15,gestures/girl_S.mp4,wh_stle,i,G,girl,1,14,1.9184523,i,TRUE
144,A19B,16,gestures/boy_S.mp4,po_nt,i,G,boy,1,15,1.0477316,i,TRUE
145,A19B,17,gestures/cat_S.mp4,lo_k,o,G,cat,1,16,1.4936103,o,TRUE
146,A19B,18,gestures/horse_S.mp4,k_ck,i,G,horse,1,17,1.3684418,i,TRUE
147,A19B,19,gestures/girl_S.mp4,ha_r,i,G,girl,1,18,1.207225,i,TRUE
148,A19B,20,gestures/baby_S.mp4,sm_le,i,G,baby,1,19,1.4771307,i,TRUE
149,A19B,21,gestures/boy_S.mp4,w_ve,a,G,boy,1,20,1.5671976,o,FALSE
150,A19B,22,gestures/horse_S.mp4,w_lk,a,G,horse,1,21,1.2932249,a,TRUE
151,A19B,23,gestures/frog_S.mp4,j_mp,u,G,frog,1,22,1.329954,u,TRUE
152,A19B,24,gestures/girl_S.mp4,h_g,u,G,girl,1,23,1.0936123,u,TRUE
153,A19B,25,gestures/baby_S.mp4,t_ddy,e,G,baby,1,24,1.2723827,e,TRUE
154,A19B,26,gestures/car_S.mp4,wind_w,o,G,car,1,25,1.6626892,o,TRUE
155,A19B,27,gestures/car_S.mp4,whe_l,e,G,car,1,26,1.7205943,e,TRUE
156,A19B,28,gestures/dog_S.mp4,to_th,o,G,dog,1,27,1.5495543,u,FALSE
157,A19B,29,gestures/dog_S.mp4,n_ck,e,G,dog,1,28,1.2139194,e,TRUE
158,A19B,30,gestures/frog_S.mp4,tong_e,u,G,frog,1,29,1.4648902,u,TRUE
159,A19B,31,gestures/horse_S.mp4,h_ad,e,G,horse,1,30,1.2969776,e,TRUE
160,A19B,32,gestures/baby_S.mp4,cr_wl,a,G,baby,1,31,1.1250889,a,TRUE
161,A19B,33,gestures/horse_PL.mp4,w_lk,a,S,horse,1,32,1.1571367,a,TRUE
162,A19B,34,gestures/boy_POS.mp4,t-sh_rt,i,S,boy,1,33,1.2438183,i,TRUE
163,A19B,35,gestures/girl_PL.mp4,h_g,u,S,girl,1,34,1.1798949,u,TRUE
164,A19B,36,gestures/frog_POS.mp4,tong_e,u,S,frog,1,35,1.2127379,u,TRUE
165,A19B,37,gestures/car_POS.mp4,wind_w,o,S,car,1,36,1.3313961,o,TRUE
166,A19B,38,gestures/baby_POS.mp4,bl_nket,a,S,baby,1,37,1.0241119,a,TRUE
167,A19B,39,gestures/girl_POS.mp4,dr_ss,e,S,girl,1,38,1.0191559,e,TRUE
168,A19B,40,gestures/cat_PL.mp4,lo_k,o,S,cat,1,39,1.293952,o,TRUE
169,A19B,41,gestures/horse_PL.mp4,k_ck,i,S,horse,1,40,1.1750618,i,TRUE
170,A19B,42,gestures/baby_POS.mp4,t_ddy,e,S,baby,1,41,0.97577906,e,TRUE
171,A19B,43,gestures/car_POS.mp4,whe_l,e,S,car,1,42,1.1313702,e,TRUE
172,A19B,44,gestures/frog_PL.mp4,j_mp,u,S,frog,1,43,1.1512413,u,TRUE
173,A19B,45,gestures/boy_POS.mp4,bo_k,o,S,boy,1,44,1.3300675,o,TRUE
174,A19B,46,gestures/horse_POS.mp4,h_ad,e,S,horse,1,45,1.0353761,e,TRUE
175,A19B,47,gestures/dog_PL.mp4,b_rk,a,S,dog,1,46,1.1424652,a,TRUE
176,A19B,48,gestures/dog_POS.mp4,to_th,o,S,dog,1,47,1.34367,o,TRUE
177,A19B,49,gestures/frog_PL.mp4,list_n,e,S,frog,1,48,1.2851424,e,TRUE
178,A19B,50,gestures/girl_POS.mp4,ha_r,i,S,girl,1,49,1.5700237,i,TRUE
179,A19B,51,gestures/car_PL.mp4,cr_sh,a,S,car,1,50,1.040083,a,TRUE
180,A19B,52,gestures/cat_PL.mp4,sl_ep,e,S,cat,1,51,1.0658588,e,TRUE
181,A19B,53,gestures/baby_PL.mp4,cr_wl,a,S,baby,1,52,0.8875637,a,TRUE
182,A19B,54,gestures/car_PL.mp4,m_ve,o,S,car,1,53,1.5851008,a,FALSE
183,A19B,55,gestures/frog_POS.mp4,fo_t,o,S,frog,1,54,1.2811385,o,TRUE
184,A19B,56,gestures/dog_PL.mp4,pl_y,a,S,dog,1,55,0.9693385,a,TRUE
185,A19B,57,gestures/baby_PL.mp4,sm_le,i,S,baby,1,56,1.3691051,i,TRUE
186,A19B,58,gestures/cat_POS.mp4,ta_l,i,S,cat,1,57,1.126725,i,TRUE
187,A19B,59,gestures/girl_PL.mp4,wh_stle,i,S,girl,1,58,1.124739,i,TRUE
188,A19B,60,gestures/boy_PL.mp4,w_ve,a,S,boy,1,59,1.641101,a,TRUE
189,A19B,61,gestures/boy_PL.mp4,po_nt,i,S,boy,1,60,1.0897676,i,TRUE
190,A19B,62,gestures/cat_POS.mp4,n_se,o,S,cat,1,61,1.2554508,o,TRUE
191,A19B,63,gestures/horse_POS.mp4,mo_th,u,S,horse,1,62,1.5577546,u,TRUE
192,A19B,64,gestures/dog_POS.mp4,n_ck,e,S,dog,1,63,2.245736,e,TRUE
193,H15,1,gestures/horse_S.mp4,h_ad,e,G,horse,1,0,12.290462,e,TRUE
194,H15,2,gestures/girl_S.mp4,h_g,u,G,girl,1,1,1.6141438,u,TRUE
195,H15,3,gestures/girl_S.mp4,ha_r,i,G,girl,1,2,1.5366904,i,TRUE
196,H15,4,gestures/cat_S.mp4,lo_k,o,G,cat,1,3,1.7237353,o,TRUE
197,H15,5,gestures/boy_S.mp4,t-sh_rt,i,G,boy,1,4,1.8536781,i,TRUE
198,H15,6,gestures/girl_S.mp4,wh_stle,i,G,girl,1,5,1.4362913,i,TRUE
199,H15,7,gestures/frog_S.mp4,tong_e,u,G,frog,1,6,2.2956438,u,TRUE
200,H15,8,gestures/boy_S.mp4,w_ve,a,G,boy,1,7,1.4440899,a,TRUE
201,H15,9,gestures/cat_S.mp4,sl_ep,e,G,cat,1,8,1.3237184,e,TRUE
202,H15,10,gestures/baby_S.mp4,t_ddy,e,G,baby,1,9,1.3403782,e,TRUE
203,H15,11,gestures/car_S.mp4,cr_sh,a,G,car,1,10,1.3475572,a,TRUE
204,H15,12,gestures/car_S.mp4,whe_l,e,G,car,1,11,1.2121578,e,TRUE
205,H15,13,gestures/frog_S.mp4,j_mp,u,G,frog,1,12,1.136368,u,TRUE
206,H15,14,gestures/baby_S.mp4,cr_wl,a,G,baby,1,13,1.5061992,a,TRUE
207,H15,15,gestures/dog_S.mp4,n_ck,e,G,dog,1,14,2.0540593,e,TRUE
208,H15,16,gestures/car_S.mp4,wind_w,o,G,car,1,15,1.4296992,o,TRUE
209,H15,17,gestures/cat_S.mp4,ta_l,i,G,cat,1,16,1.4117446,i,TRUE
210,H15,18,gestures/baby_S.mp4,bl_nket,a,G,baby,1,17,1.1845771,a,TRUE
211,H15,19,gestures/frog_S.mp4,list_n,e,G,frog,1,18,1.2685082,e,TRUE
212,H15,20,gestures/horse_S.mp4,mo_th,u,G,horse,1,19,1.673376,u,TRUE
213,H15,21,gestures/horse_S.mp4,w_lk,a,G,horse,1,20,1.151512,a,TRUE
214,H15,22,gestures/dog_S.mp4,b_rk,a,G,dog,1,21,2.8336005,a,TRUE
215,H15,23,gestures/boy_S.mp4,bo_k,o,G,boy,1,22,1.2352306,o,TRUE
216,H15,24,gestures/cat_S.mp4,n_se,o,G,cat,1,23,1.4856392,o,TRUE
217,H15,25,gestures/car_S.mp4,m_ve,o,G,car,1,24,1.8521764,o,TRUE
218,H15,26,gestures/girl_S.mp4,dr_ss,e,G,girl,1,25,1.2253346,e,TRUE
219,H15,27,gestures/boy_S.mp4,po_nt,i,G,boy,1,26,1.0499941,i,TRUE
220,H15,28,gestures/dog_S.mp4,to_th,o,G,dog,1,27,1.1658223,o,TRUE
221,H15,29,gestures/dog_S.mp4,pl_y,a,G,dog,1,28,1.5476416,a,TRUE
222,H15,30,gestures/frog_S.mp4,fo_t,o,G,frog,1,29,1.2097944,o,TRUE
223,H15,31,gestures/baby_S.mp4,sm_le,i,G,baby,1,30,0.9992188,i,TRUE
224,H15,32,gestures/horse_S.mp4,k_ck,i,G,horse,1,31,1.1605914,i,TRUE
225,H15,33,gestures/horse_POS.mp4,h_ad,e,S,horse,1,32,1.4484696,e,TRUE
226,H15,34,gestures/car_POS.mp4,whe_l,e,S,car,1,33,1.1389967,e,TRUE
227,H15,35,gestures/car_PL.mp4,cr_sh,a,S,car,1,34,1.730803,u,FALSE
228,H15,36,gestures/boy_POS.mp4,bo_k,o,S,boy,1,35,1.1522642,o,TRUE
229,H15,37,gestures/dog_PL.mp4,pl_y,a,S,dog,1,36,1.2281309,a,TRUE
230,H15,38,gestures/cat_PL.mp4,sl_ep,e,S,cat,1,37,1.1264238,e,TRUE
231,H15,39,gestures/dog_POS.mp4,to_th,o,S,dog,1,38,1.3283625,o,TRUE
232,H15,40,gestures/cat_POS.mp4,n_se,o,S,cat,1,39,1.1487722,o,TRUE
233,H15,41,gestures/girl_POS.mp4,dr_ss,e,S,girl,1,40,1.144582,e,TRUE
234,H15,42,gestures/frog_PL.mp4,list_n,e,S,frog,1,41,1.4153907,e,TRUE
235,H15,43,gestures/girl_PL.mp4,h_g,u,S,girl,1,42,1.223576,u,TRUE
236,H15,44,gestures/baby_PL.mp4,sm_le,i,S,baby,1,43,1.1081849,i,TRUE
237,H15,45,gestures/frog_POS.mp4,tong_e,u,S,frog,1,44,1.5275801,u,TRUE
238,H15,46,gestures/dog_PL.mp4,b_rk,a,S,dog,1,45,2.8029032,a,TRUE
239,H15,47,gestures/girl_POS.mp4,ha_r,i,S,girl,1,46,1.0948884,i,TRUE
240,H15,48,gestures/horse_PL.mp4,k_ck,i,S,horse,1,47,1.498876,i,TRUE
241,H15,49,gestures/girl_PL.mp4,wh_stle,i,S,girl,1,48,1.1979892,i,TRUE
242,H15,50,gestures/cat_POS.mp4,ta_l,i,S,cat,1,49,1.2752857,i,TRUE
243,H15,51,gestures/boy_POS.mp4,t-sh_rt,i,S,boy,1,50,1.1347399,i,TRUE
244,H15,52,gestures/car_POS.mp4,wind_w,o,S,car,1,51,1.2503165,o,TRUE
245,H15,53,gestures/frog_PL.mp4,j_mp,u,S,frog,1,52,1.1519533,u,TRUE
246,H15,54,gestures/dog_POS.mp4,n_ck,e,S,dog,1,53,1.5926805,e,TRUE
247,H15,55,gestures/horse_PL.mp4,w_lk,a,S,horse,1,54,1.3732389,a,TRUE
248,H15,56,gestures/baby_POS.mp4,bl_nket,a,S,baby,1,55,1.5019648,a,TRUE
249,H15,57,gestures/car_PL.mp4,m_ve,o,S,car,1,56,1.7359273,o,TRUE
250,H15,58,gestures/boy_PL.mp4,po_nt,i,S,boy,1,57,1.2767478,i,TRUE
251,H15,59,gestures/boy_PL.mp4,w_ve,a,S,boy,1,58,1.9191638,a,TRUE
252,H15,60,gestures/frog_POS.mp4,fo_t,o,S,frog,1,59,1.1974933,o,TRUE
253,H15,61,gestures/baby_POS.mp4,t_ddy,e,S,baby,1,60,1.1699809,e,TRUE
254,H15,62,gestures/baby_PL.mp4,cr_wl,a,S,baby,1,61,1.3130502,a,TRUE
255,H15,63,gestures/horse_POS.mp4,mo_th,u,S,horse,1,62,1.7007428,u,TRUE
256,H15,64,gestures/cat_PL.mp4,lo_k,o,S,cat,1,63,1.1694196,o,TRUE
257,H17,1,gestures/horse_POS.mp4,h_ad,e,S,horse,1,0,1.6655337,e,TRUE
258,H17,2,gestures/cat_PL.mp4,sl_ep,e,S,cat,1,1,3.6640704,e,TRUE
259,H17,3,gestures/cat_POS.mp4,n_se,o,S,cat,1,2,1.8301219,o,TRUE
260,H17,4,gestures/horse_PL.mp4,w_lk,a,S,horse,1,3,1.6701332,a,TRUE
261,H17,5,gestures/girl_POS.mp4,dr_ss,e,S,girl,1,4,2.0702896,e,TRUE
262,H17,6,gestures/dog_PL.mp4,b_rk,a,S,dog,1,5,1.951975,a,TRUE
263,H17,7,gestures/frog_PL.mp4,list_n,e,S,frog,1,6,1.6728361,e,TRUE
264,H17,8,gestures/girl_POS.mp4,ha_r,i,S,girl,1,7,15.449025,i,TRUE
265,H17,9,gestures/cat_PL.mp4,lo_k,o,S,cat,1,8,1.4718679,o,TRUE
266,H17,10,gestures/girl_PL.mp4,h_g,u,S,girl,1,9,1.5681698,u,TRUE
267,H17,11,gestures/boy_POS.mp4,t-sh_rt,i,S,boy,1,10,3.0411446,i,TRUE
268,H17,12,gestures/dog_POS.mp4,n_ck,e,S,dog,1,11,1.7934777,e,TRUE
269,H17,13,gestures/baby_POS.mp4,bl_nket,a,S,baby,1,12,1.4168041,a,TRUE
270,H17,14,gestures/horse_PL.mp4,k_ck,i,S,horse,1,13,1.503747,i,TRUE
271,H17,15,gestures/boy_POS.mp4,bo_k,o,S,boy,1,14,1.3711581,o,TRUE
272,H17,16,gestures/car_POS.mp4,wind_w,o,S,car,1,15,1.3134665,o,TRUE
273,H17,17,gestures/dog_POS.mp4,to_th,o,S,dog,1,16,1.448077,o,TRUE
274,H17,18,gestures/cat_POS.mp4,ta_l,i,S,cat,1,17,1.5643445,i,TRUE
275,H17,19,gestures/horse_POS.mp4,mo_th,u,S,horse,1,18,1.3150676,o,FALSE
276,H17,20,gestures/dog_PL.mp4,pl_y,a,S,dog,1,19,1.5321847,a,TRUE
277,H17,21,gestures/girl_PL.mp4,wh_stle,i,S,girl,1,20,1.3434783,i,TRUE
278,H17,22,gestures/car_POS.mp4,whe_l,e,S,car,1,21,1.9367534,e,TRUE
279,H17,23,gestures/car_PL.mp4,m_ve,o,S,car,1,22,1.4074706,o,TRUE
280,H17,24,gestures/frog_PL.mp4,j_mp,u,S,frog,1,23,1.4543077,u,TRUE
281,H17,25,gestures/car_PL.mp4,cr_sh,a,S,car,1,24,5.2503047,u,FALSE
282,H17,26,gestures/boy_PL.mp4,po_nt,i,S,boy,1,25,1.5245091,i,TRUE
283,H17,27,gestures/baby_PL.mp4,cr_wl,a,S,baby,1,26,1.480119,a,TRUE
284,H17,28,gestures/frog_POS.mp4,tong_e,u,S,frog,1,27,1.9449272,u,TRUE
285,H17,29,gestures/boy_PL.mp4,w_ve,a,S,boy,1,28,2.2515903,a,TRUE
286,H17,30,gestures/frog_POS.mp4,fo_t,o,S,frog,1,29,1.57157,o,TRUE
287,H17,31,gestures/baby_PL.mp4,sm_le,i,S,baby,1,30,1.4529847,i,TRUE
288,H17,32,gestures/baby_POS.mp4,t_ddy,e,S,baby,1,31,2.293378,e,TRUE
289,H17,33,gestures/horse_S.mp4,mo_th,u,G,horse,1,32,2.4627407,o,FALSE
290,H17,34,gestures/boy_S.mp4,w_ve,a,G,boy,1,33,1.1609852,a,TRUE
291,H17,35,gestures/baby_S.mp4,t_ddy,e,G,baby,1,34,1.4336096,e,TRUE
292,H17,36,gestures/baby_S.mp4,bl_nket,a,G,baby,1,35,1.2607863,a,TRUE
293,H17,37,gestures/car_S.mp4,cr_sh,a,G,car,1,36,1.250641,a,TRUE
294,H17,38,gestures/cat_S.mp4,n_se,o,G,cat,1,37,1.335994,o,TRUE
295,H17,39,gestures/girl_S.mp4,wh_stle,i,G,girl,1,38,1.2292883,i,TRUE
296,H17,40,gestures/horse_S.mp4,k_ck,i,G,horse,1,39,1.1459931,i,TRUE
297,H17,41,gestures/cat_S.mp4,sl_ep,e,G,cat,1,40,1.0454017,e,TRUE
298,H17,42,gestures/horse_S.mp4,w_lk,a,G,horse,1,41,1.145894,a,TRUE
299,H17,43,gestures/girl_S.mp4,ha_r,i,G,girl,1,42,1.2983775,i,TRUE
300,H17,44,gestures/car_S.mp4,m_ve,o,G,car,1,43,1.5702354,o,TRUE
301,H17,45,gestures/horse_S.mp4,h_ad,e,G,horse,1,44,1.2776155,e,TRUE
302,H17,46,gestures/cat_S.mp4,lo_k,o,G,cat,1,45,1.1239642,o,TRUE
303,H17,47,gestures/car_S.mp4,wind_w,o,G,car,1,46,1.1235918,o,TRUE
304,H17,48,gestures/dog_S.mp4,b_rk,a,G,dog,1,47,1.2525419,a,TRUE
305,H17,49,gestures/car_S.mp4,whe_l,e,G,car,1,48,1.148661,e,TRUE
306,H17,50,gestures/dog_S.mp4,n_ck,e,G,dog,1,49,3.3282814,e,TRUE
307,H17,51,gestures/dog_S.mp4,to_th,o,G,dog,1,50,1.0935484,o,TRUE
308,H17,52,gestures/girl_S.mp4,dr_ss,e,G,girl,1,51,1.0753891,e,TRUE
309,H17,53,gestures/frog_S.mp4,list_n,e,G,frog,1,52,1.3398006,e,TRUE
310,H17,54,gestures/girl_S.mp4,h_g,u,G,girl,1,53,1.336002,u,TRUE
311,H17,55,gestures/boy_S.mp4,t-sh_rt,i,G,boy,1,54,1.3422915,i,TRUE
312,H17,56,gestures/boy_S.mp4,bo_k,o,G,boy,1,55,1.2046537,o,TRUE
313,H17,57,gestures/dog_S.mp4,pl_y,a,G,dog,1,56,0.98703873,a,TRUE
314,H17,58,gestures/frog_S.mp4,fo_t,o,G,frog,1,57,1.1216431,o,TRUE
315,H17,59,gestures/boy_S.mp4,po_nt,i,G,boy,1,58,1.0869846,i,TRUE
316,H17,60,gestures/baby_S.mp4,sm_le,i,G,baby,1,59,1.021239,i,TRUE
317,H17,61,gestures/cat_S.mp4,ta_l,i,G,cat,1,60,1.222868,i,TRUE
318,H17,62,gestures/frog_S.mp4,tong_e,u,G,frog,1,61,1.921999,u,TRUE
319,H17,63,gestures/frog_S.mp4,j_mp,u,G,frog,1,62,1.1906315,u,TRUE
320,H17,64,gestures/baby_S.mp4,cr_wl,a,G,baby,1,63,1.1183577,a,TRUE
321,I42,1,gestures/girl_S.mp4,wh_stle,i,G,girl,1,0,2.4740505,i,TRUE
322,I42,2,gestures/car_S.mp4,cr_sh,a,G,car,1,1,1.5271629,a,TRUE
323,I42,3,gestures/dog_S.mp4,pl_y,a,G,dog,1,2,1.5122322,a,TRUE
324,I42,4,gestures/cat_S.mp4,ta_l,i,G,cat,1,3,1.8773454,i,TRUE
325,I42,5,gestures/girl_S.mp4,ha_r,i,G,girl,1,4,1.6388893,i,TRUE
326,I42,6,gestures/frog_S.mp4,fo_t,o,G,frog,1,5,6.227633,e,FALSE
327,I42,7,gestures/car_S.mp4,wind_w,o,G,car,1,6,2.8306112,o,TRUE
328,I42,8,gestures/frog_S.mp4,j_mp,u,G,frog,1,7,1.7824516,u,TRUE
329,I42,9,gestures/car_S.mp4,whe_l,e,G,car,1,8,3.5221171,e,TRUE
330,I42,10,gestures/dog_S.mp4,n_ck,e,G,dog,1,9,1.5157187,e,TRUE
331,I42,11,gestures/horse_S.mp4,w_lk,a,G,horse,1,10,2.9743307,o,FALSE
332,I42,12,gestures/boy_S.mp4,bo_k,o,G,boy,1,11,4.7802534,o,TRUE
333,I42,13,gestures/baby_S.mp4,sm_le,i,G,baby,1,12,1.6307913,i,TRUE
334,I42,14,gestures/boy_S.mp4,t-sh_rt,i,G,boy,1,13,2.1632915,i,TRUE
335,I42,15,gestures/boy_S.mp4,w_ve,a,G,boy,1,14,2.0932322,e,FALSE
336,I42,16,gestures/boy_S.mp4,po_nt,i,G,boy,1,15,1.9125828,i,TRUE
337,I42,17,gestures/baby_S.mp4,bl_nket,a,G,baby,1,16,2.6285503,a,TRUE
338,I42,18,gestures/horse_S.mp4,k_ck,i,G,horse,1,17,1.8611071,i,TRUE
339,I42,19,gestures/horse_S.mp4,mo_th,u,G,horse,1,18,2.188689,o,FALSE
340,I42,20,gestures/cat_S.mp4,sl_ep,e,G,cat,1,19,2.1310213,e,TRUE
341,I42,21,gestures/baby_S.mp4,t_ddy,e,G,baby,1,20,2.153341,e,TRUE
342,I42,22,gestures/girl_S.mp4,dr_ss,e,G,girl,1,21,3.003839,e,TRUE
343,I42,23,gestures/frog_S.mp4,list_n,e,G,frog,1,22,3.2328098,e,TRUE
344,I42,24,gestures/cat_S.mp4,n_se,o,G,cat,1,23,3.547077,o,TRUE
345,I42,25,gestures/dog_S.mp4,to_th,o,G,dog,1,24,1.7170296,o,TRUE
346,I42,26,gestures/cat_S.mp4,lo_k,o,G,cat,1,25,4.566446,o,TRUE
347,I42,27,gestures/frog_S.mp4,tong_e,u,G,frog,1,26,5.327992,u,TRUE
348,I42,28,gestures/baby_S.mp4,cr_wl,a,G,baby,1,27,4.510193,a,TRUE
349,I42,29,gestures/dog_S.mp4,b_rk,a,G,dog,1,28,3.3557746,u,FALSE
350,I42,30,gestures/car_S.mp4,m_ve,o,G,car,1,29,3.221108,o,TRUE
351,I42,31,gestures/girl_S.mp4,h_g,u,G,girl,1,30,1.9805317,u,TRUE
352,I42,32,gestures/horse_S.mp4,h_ad,e,G,horse,1,31,2.3729477,e,TRUE
353,I42,33,gestures/baby_POS.mp4,t_ddy,e,S,baby,1,32,1.755093,e,TRUE
354,I42,34,gestures/baby_POS.mp4,bl_nket,a,S,baby,1,33,1.4183477,a,TRUE
355,I42,35,gestures/frog_POS.mp4,tong_e,u,S,frog,1,34,3.078506,u,TRUE
356,I42,36,gestures/horse_POS.mp4,mo_th,u,S,horse,1,35,2.6449847,u,TRUE
357,I42,37,gestures/baby_PL.mp4,sm_le,i,S,baby,1,36,1.7897822,a,FALSE
358,I42,38,gestures/cat_PL.mp4,sl_ep,e,S,cat,1,37,1.9225082,e,TRUE
359,I42,39,gestures/boy_POS.mp4,t-sh_rt,i,S,boy,1,38,2.0269547,i,TRUE
360,I42,40,gestures/dog_POS.mp4,to_th,o,S,dog,1,39,3.0394967,o,TRUE
361,I42,41,gestures/car_POS.mp4,whe_l,e,S,car,1,40,4.673229,a,FALSE
362,I42,42,gestures/frog_POS.mp4,fo_t,o,S,frog,1,41,2.4814227,o,TRUE
363,I42,43,gestures/horse_PL.mp4,k_ck,i,S,horse,1,42,1.7632451,i,TRUE
364,I42,44,gestures/girl_PL.mp4,wh_stle,i,S,girl,1,43,3.7927604,i,TRUE
365,I42,45,gestures/car_PL.mp4,m_ve,o,S,car,1,44,3.8654325,u,FALSE
366,I42,46,gestures/boy_POS.mp4,bo_k,o,S,boy,1,45,1.6586112,o,TRUE
367,I42,47,gestures/dog_PL.mp4,b_rk,a,S,dog,1,46,3.1047902,u,FALSE
368,I42,48,gestures/dog_PL.mp4,pl_y,a,S,dog,1,47,1.6330687,a,TRUE
369,I42,49,gestures/cat_PL.mp4,lo_k,o,S,cat,1,48,3.1160834,o,TRUE
370,I42,50,gestures/horse_PL.mp4,w_lk,a,S,horse,1,49,4.2288504,a,TRUE
371,I42,51,gestures/baby_PL.mp4,cr_wl,a,S,baby,1,50,5.5922403,u,FALSE
372,I42,52,gestures/frog_PL.mp4,list_n,e,S,frog,1,51,2.6649835,e,TRUE
373,I42,53,gestures/boy_PL.mp4,po_nt,i,S,boy,1,52,2.4445126,i,TRUE
374,I42,54,gestures/girl_POS.mp4,ha_r,i,S,girl,1,53,1.3790512,i,TRUE
375,I42,55,gestures/dog_POS.mp4,n_ck,e,S,dog,1,54,2.032834,e,TRUE
376,I42,56,gestures/cat_POS.mp4,n_se,o,S,cat,1,55,1.8441709,o,TRUE
377,I42,57,gestures/horse_POS.mp4,h_ad,e,S,horse,1,56,2.5896316,e,TRUE
378,I42,58,gestures/frog_PL.mp4,j_mp,u,S,frog,1,57,1.9867309,u,TRUE
379,I42,59,gestures/girl_PL.mp4,h_g,u,S,girl,1,58,1.7526798,u,TRUE
380,I42,60,gestures/car_POS.mp4,wind_w,o,S,car,1,59,1.5382115,o,TRUE
381,I42,61,gestures/cat_POS.mp4,ta_l,i,S,cat,1,60,1.4328973,i,TRUE
382,I42,62,gestures/girl_POS.mp4,dr_ss,e,S,girl,1,61,1.6641015,e,TRUE
383,I42,63,gestures/car_PL.mp4,cr_sh,a,S,car,1,62,2.60688,a,TRUE
384,I42,64,gestures/boy_PL.mp4,w_ve,a,S,boy,1,63,3.934726,e,FALSE
385,K,1,gestures/frog_S.mp4,j_mp,u,G,frog,1,0,1.3718919,u,TRUE
386,K,2,gestures/dog_S.mp4,pl_y,a,G,dog,1,1,1.0928516,a,TRUE
387,K,3,gestures/baby_PL.mp4,sm_le,i,S,baby,1,2,1.3530647,i,TRUE
388,K,4,gestures/boy_POS.mp4,bl_nket,a,S,boy,1,3,0.9680267,a,TRUE
389,K11,1,gestures/car_S.mp4,m_ve,o,G,car,1,0,33.09379,o,TRUE
390,K11,2,gestures/baby_S.mp4,sm_le,i,G,baby,1,1,9.181969,i,TRUE
391,K11,3,gestures/boy_S.mp4,po_nt,i,G,boy,1,2,7.0091877,i,TRUE
392,K11,4,gestures/car_S.mp4,cr_sh,a,G,car,1,3,4.0146217,a,TRUE
393,K11,5,gestures/girl_S.mp4,dr_ss,e,G,girl,1,4,5.6968966,e,TRUE
394,K11,6,gestures/cat_S.mp4,ta_l,i,G,cat,1,5,21.080465,e,FALSE
395,K11,7,gestures/baby_S.mp4,cr_wl,a,G,baby,1,6,18.21031,a,TRUE
396,K11,8,gestures/car_S.mp4,wind_w,o,G,car,1,7,2.9605029,o,TRUE
397,K11,9,gestures/cat_S.mp4,n_se,o,G,cat,1,8,2.063742,o,TRUE
398,K11,10,gestures/baby_S.mp4,t_ddy,e,G,baby,1,9,3.0695264,e,TRUE
399,K11,11,gestures/dog_S.mp4,n_ck,e,G,dog,1,10,7.2971063,e,TRUE
400,K11,12,gestures/girl_S.mp4,h_g,u,G,girl,1,11,20.75919,o,FALSE
401,K11,13,gestures/frog_S.mp4,fo_t,o,G,frog,1,12,2.67422,o,TRUE
402,K11,14,gestures/dog_S.mp4,b_rk,a,G,dog,1,13,13.493998,i,FALSE
403,K11,15,gestures/boy_S.mp4,bo_k,o,G,boy,1,14,2.7617579,o,TRUE
404,K11,16,gestures/dog_S.mp4,pl_y,a,G,dog,1,15,2.5308447,a,TRUE
405,K11,17,gestures/boy_S.mp4,w_ve,a,G,boy,1,16,12.544885,e,FALSE
406,K11,18,gestures/cat_S.mp4,sl_ep,e,G,cat,1,17,9.127533,e,TRUE
407,K11,19,gestures/frog_S.mp4,tong_e,u,G,frog,1,18,27.249897,e,FALSE
408,K11,20,gestures/horse_S.mp4,k_ck,i,G,horse,1,19,3.4244688,i,TRUE
409,K11,21,gestures/girl_S.mp4,ha_r,i,G,girl,1,20,3.482868,a,FALSE
410,K11,22,gestures/boy_S.mp4,t-sh_rt,i,G,boy,1,21,2.9348998,i,TRUE
411,K11,23,gestures/girl_S.mp4,wh_stle,i,G,girl,1,22,14.378353,a,FALSE
412,K11,24,gestures/cat_S.mp4,lo_k,o,G,cat,1,23,4.008388,o,TRUE
413,K11,25,gestures/frog_S.mp4,list_n,e,G,frog,1,24,11.575505,e,TRUE
414,K11,26,gestures/car_S.mp4,whe_l,e,G,car,1,25,3.6938727,e,TRUE
415,K11,27,gestures/horse_S.mp4,w_lk,a,G,horse,1,26,3.7421157,e,FALSE
416,K11,28,gestures/frog_S.mp4,j_mp,u,G,frog,1,27,2.6809945,u,TRUE
417,K11,29,gestures/horse_S.mp4,h_ad,e,G,horse,1,28,4.878391,e,TRUE
418,K11,30,gestures/baby_S.mp4,bl_nket,a,G,baby,1,29,4.5276914,a,TRUE
419,K11,31,gestures/horse_S.mp4,mo_th,u,G,horse,1,30,13.967178,u,TRUE
420,K11,32,gestures/dog_S.mp4,to_th,o,G,dog,1,31,25.280926,u,FALSE
421,K11,33,gestures/cat_POS.mp4,ta_l,i,S,cat,1,32,19.75416,e,FALSE
422,K11,34,gestures/dog_PL.mp4,pl_y,a,S,dog,1,33,6.316426,a,TRUE
423,K11,35,gestures/horse_PL.mp4,w_lk,a,S,horse,1,34,4.88076,a,TRUE
424,K11,36,gestures/dog_POS.mp4,to_th,o,S,dog,1,35,3.1661942,o,TRUE
425,K11,37,gestures/frog_POS.mp4,fo_t,o,S,frog,1,36,1.9493406,o,TRUE
426,K11,38,gestures/boy_PL.mp4,po_nt,i,S,boy,1,37,3.9629445,i,TRUE
427,K11,39,gestures/car_PL.mp4,m_ve,o,S,car,1,38,2.2983882,o,TRUE
428,K11,40,gestures/dog_PL.mp4,b_rk,a,S,dog,1,39,2.5108569,o,FALSE
429,K11,41,gestures/car_POS.mp4,wind_w,o,S,car,1,40,2.163625,o,TRUE
430,K11,42,gestures/baby_PL.mp4,sm_le,i,S,baby,1,41,1.9527526,i,TRUE
431,K11,43,gestures/horse_POS.mp4,mo_th,u,S,horse,1,42,2.659811,o,FALSE
432,K11,44,gestures/girl_PL.mp4,h_g,u,S,girl,1,43,5.889143,a,FALSE
433,K11,45,gestures/cat_PL.mp4,sl_ep,e,S,cat,1,44,2.6430786,e,TRUE
434,K11,46,gestures/cat_PL.mp4,lo_k,o,S,cat,1,45,3.742475,o,TRUE
435,K11,47,gestures/baby_PL.mp4,cr_wl,a,S,baby,1,46,10.322738,o,FALSE
436,K11,48,gestures/baby_POS.mp4,t_ddy,e,S,baby,1,47,2.4145591,e,TRUE
437,K11,49,gestures/horse_POS.mp4,h_ad,e,S,horse,1,48,2.7345238,e,TRUE
438,K11,50,gestures/boy_PL.mp4,w_ve,a,S,boy,1,49,3.480515,a,TRUE
439,K11,51,gestures/frog_POS.mp4,tong_e,u,S,frog,1,50,3.655343,i,FALSE
440,K11,52,gestures/boy_POS.mp4,bo_k,o,S,boy,1,51,1.7257661,o,TRUE
441,K11,53,gestures/car_PL.mp4,cr_sh,a,S,car,1,52,1.9596933,a,TRUE
442,K11,54,gestures/dog_POS.mp4,n_ck,e,S,dog,1,53,10.2121,a,FALSE
443,K11,55,gestures/boy_POS.mp4,t-sh_rt,i,S,boy,1,54,2.048482,i,TRUE
444,K11,56,gestures/frog_PL.mp4,j_mp,u,S,frog,1,55,2.015594,u,TRUE
445,K11,57,gestures/girl_POS.mp4,ha_r,i,S,girl,1,56,2.209779,e,FALSE
446,K11,58,gestures/cat_POS.mp4,n_se,o,S,cat,1,57,2.3235037,o,TRUE
447,K11,59,gestures/frog_PL.mp4,list_n,e,S,frog,1,58,2.8930013,e,TRUE
448,K11,60,gestures/girl_PL.mp4,wh_stle,i,S,girl,1,59,1.8501192,u,FALSE
449,K11,61,gestures/car_POS.mp4,whe_l,e,S,car,1,60,2.4627357,a,FALSE
450,K11,62,gestures/horse_PL.mp4,k_ck,i,S,horse,1,61,2.0760107,i,TRUE
451,K11,63,gestures/girl_POS.mp4,dr_ss,e,S,girl,1,62,2.2959352,e,TRUE
452,K11,64,gestures/baby_POS.mp4,bl_nket,a,S,baby,1,63,5.9850874,a,TRUE
453,K32,1,gestures/car_POS.mp4,wind_w,o,S,car,1,0,1.0187693,o,TRUE
454,K32,2,gestures/horse_PL.mp4,w_lk,a,S,horse,1,1,0.9541956,a,TRUE
455,K32,3,gestures/girl_PL.mp4,wh_stle,i,S,girl,1,2,1.2242303,i,TRUE
456,K32,4,gestures/car_POS.mp4,whe_l,e,S,car,1,3,1.4607937,e,TRUE
457,K32,5,gestures/dog_PL.mp4,pl_y,a,S,dog,1,4,0.8565083,a,TRUE
458,K32,6,gestures/girl_POS.mp4,dr_ss,e,S,girl,1,5,1.0020667,e,TRUE
459,K32,7,gestures/baby_PL.mp4,cr_wl,a,S,baby,1,6,0.92261064,a,TRUE
460,K32,8,gestures/baby_POS.mp4,t_ddy,e,S,baby,1,7,0.97161674,e,TRUE
461,K32,9,gestures/horse_POS.mp4,mo_th,u,S,horse,1,8,1.3002305,o,FALSE
462,K32,10,gestures/horse_POS.mp4,h_ad,e,S,horse,1,9,0.98485744,e,TRUE
463,K32,11,gestures/boy_POS.mp4,bo_k,o,S,boy,1,10,1.0711855,o,TRUE
464,K32,12,gestures/cat_POS.mp4,ta_l,i,S,cat,1,11,1.210966,i,TRUE
465,K32,13,gestures/frog_POS.mp4,tong_e,u,S,frog,1,12,1.1525793,u,TRUE
466,K32,14,gestures/baby_POS.mp4,bl_nket,a,S,baby,1,13,0.8525914,a,TRUE
467,K32,15,gestures/girl_PL.mp4,h_g,u,S,girl,1,14,1.5698851,u,TRUE
468,K32,16,gestures/dog_POS.mp4,to_th,o,S,dog,1,15,1.5870559,o,TRUE
469,K32,17,gestures/boy_POS.mp4,t-sh_rt,i,S,boy,1,16,1.0455427,i,TRUE
470,K32,18,gestures/cat_PL.mp4,lo_k,o,S,cat,1,17,1.0271832,o,TRUE
471,K32,19,gestures/frog_PL.mp4,list_n,e,S,frog,1,18,1.2480205,e,TRUE
472,K32,20,gestures/dog_PL.mp4,b_rk,a,S,dog,1,19,1.0574921,a,TRUE
473,K32,21,gestures/horse_PL.mp4,k_ck,i,S,horse,1,20,1.1536041,i,TRUE
474,K32,22,gestures/girl_POS.mp4,ha_r,i,S,girl,1,21,0.88668275,i,TRUE
475,K32,23,gestures/frog_PL.mp4,j_mp,u,S,frog,1,22,1.0453551,u,TRUE
476,K32,24,gestures/dog_POS.mp4,n_ck,e,S,dog,1,23,1.2666587,e,TRUE
477,K32,25,gestures/car_PL.mp4,m_ve,o,S,car,1,24,0.9580292,o,TRUE
478,K32,26,gestures/cat_POS.mp4,n_se,o,S,cat,1,25,1.0177027,o,TRUE
479,K32,27,gestures/cat_PL.mp4,sl_ep,e,S,cat,1,26,1.0467275,e,TRUE
480,K32,28,gestures/car_PL.mp4,cr_sh,a,S,car,1,27,0.89903826,a,TRUE
481,K32,29,gestures/boy_PL.mp4,w_ve,a,S,boy,1,28,1.0159949,a,TRUE
482,K32,30,gestures/boy_PL.mp4,po_nt,i,S,boy,1,29,0.98926353,i,TRUE
483,K32,31,gestures/baby_PL.mp4,sm_le,i,S,baby,1,30,0.94836557,i,TRUE
484,K32,32,gestures/frog_POS.mp4,fo_t,o,S,frog,1,31,1.0823975,o,TRUE
485,K32,33,gestures/horse_S.mp4,w_lk,a,G,horse,1,32,0.85768306,a,TRUE
486,K32,34,gestures/girl_S.mp4,dr_ss,e,G,girl,1,33,0.942556,e,TRUE
487,K32,35,gestures/frog_S.mp4,j_mp,u,G,frog,1,34,1.2142509,u,TRUE
488,K32,36,gestures/baby_S.mp4,sm_le,i,G,baby,1,35,1.0314775,i,TRUE
489,K32,37,gestures/baby_S.mp4,t_ddy,e,G,baby,1,36,0.9770998,e,TRUE
490,K32,38,gestures/boy_S.mp4,bo_k,o,G,boy,1,37,0.94467664,o,TRUE
491,K32,39,gestures/car_S.mp4,wind_w,o,G,car,1,38,0.9988577,o,TRUE
492,K32,40,gestures/car_S.mp4,whe_l,e,G,car,1,39,1.016655,e,TRUE
493,K32,41,gestures/baby_S.mp4,cr_wl,a,G,baby,1,40,1.2136058,a,TRUE
494,K32,42,gestures/girl_S.mp4,wh_stle,i,G,girl,1,41,1.053717,i,TRUE
495,K32,43,gestures/baby_S.mp4,bl_nket,a,G,baby,1,42,0.8957556,a,TRUE
496,K32,44,gestures/horse_S.mp4,mo_th,u,G,horse,1,43,1.0818752,u,TRUE
497,K32,45,gestures/dog_S.mp4,to_th,o,G,dog,1,44,1.1706057,o,TRUE
498,K32,46,gestures/dog_S.mp4,n_ck,e,G,dog,1,45,1.0911299,e,TRUE
499,K32,47,gestures/cat_S.mp4,ta_l,i,G,cat,1,46,1.2051588,i,TRUE
500,K32,48,gestures/girl_S.mp4,h_g,u,G,girl,1,47,1.6529934,u,TRUE
501,K32,49,gestures/boy_S.mp4,t-sh_rt,i,G,boy,1,48,1.1046653,i,TRUE
502,K32,50,gestures/boy_S.mp4,po_nt,i,G,boy,1,49,0.94440967,i,TRUE
503,K32,51,gestures/horse_S.mp4,h_ad,e,G,horse,1,50,1.0138093,e,TRUE
504,K32,52,gestures/cat_S.mp4,sl_ep,e,G,cat,1,51,1.0119022,e,TRUE
505,K32,53,gestures/frog_S.mp4,tong_e,u,G,frog,1,52,1.0886033,u,TRUE
506,K32,54,gestures/horse_S.mp4,k_ck,i,G,horse,1,53,1.0709689,i,TRUE
507,K32,55,gestures/boy_S.mp4,w_ve,a,G,boy,1,54,0.9847046,a,TRUE
508,K32,56,gestures/girl_S.mp4,ha_r,i,G,girl,1,55,1.0381265,i,TRUE
509,K32,57,gestures/dog_S.mp4,pl_y,a,G,dog,1,56,0.8774493,a,TRUE
510,K32,58,gestures/cat_S.mp4,lo_k,o,G,cat,1,57,0.9532391,o,TRUE
511,K32,59,gestures/cat_S.mp4,n_se,o,G,cat,1,58,0.95527047,o,TRUE
512,K32,60,gestures/car_S.mp4,cr_sh,a,G,car,1,59,0.70587796,a,TRUE
513,K32,61,gestures/frog_S.mp4,list_n,e,G,frog,1,60,1.0431733,e,TRUE
514,K32,62,gestures/car_S.mp4,m_ve,o,G,car,1,61,1.0229974,o,TRUE
515,K32,63,gestures/dog_S.mp4,b_rk,a,G,dog,1,62,1.0651629,a,TRUE
516,K32,64,gestures/frog_S.mp4,fo_t,o,G,frog,1,63,0.9169803,o,TRUE
517,M31,1,gestures/horse_PL.mp4,w_lk,a,S,horse,1,0,3.1151931,a,TRUE
518,M31,2,gestures/girl_PL.mp4,wh_stle,i,S,girl,1,1,2.4396138,i,TRUE
519,M31,3,gestures/girl_POS.mp4,dr_ss,e,S,girl,1,2,1.1396235,e,TRUE
520,M31,4,gestures/dog_POS.mp4,n_ck,e,S,dog,1,3,1.878636,e,TRUE
521,M31,5,gestures/dog_PL.mp4,pl_y,a,S,dog,1,4,1.3547175,a,TRUE
522,M31,6,gestures/boy_POS.mp4,t-sh_rt,i,S,boy,1,5,2.3545308,i,TRUE
523,M31,7,gestures/girl_PL.mp4,h_g,u,S,girl,1,6,3.690345,u,TRUE
524,M31,8,gestures/horse_PL.mp4,k_ck,i,S,horse,1,7,1.578608,i,TRUE
525,M31,9,gestures/boy_PL.mp4,w_ve,a,S,boy,1,8,1.2284129,a,TRUE
526,M31,10,gestures/car_POS.mp4,wind_w,o,S,car,1,9,1.1748178,o,TRUE
527,M31,11,gestures/boy_POS.mp4,bo_k,o,S,boy,1,10,1.2007939,o,TRUE
528,M31,12,gestures/frog_POS.mp4,fo_t,o,S,frog,1,11,1.2675576,o,TRUE
529,M31,13,gestures/dog_PL.mp4,b_rk,a,S,dog,1,12,1.566573,a,TRUE
530,M31,14,gestures/cat_POS.mp4,n_se,o,S,cat,1,13,1.3643345,o,TRUE
531,M31,15,gestures/frog_PL.mp4,list_n,e,S,frog,1,14,1.407618,e,TRUE
532,M31,16,gestures/cat_PL.mp4,lo_k,o,S,cat,1,15,1.5070812,o,TRUE
533,M31,17,gestures/frog_PL.mp4,j_mp,u,S,frog,1,16,1.7792643,u,TRUE
534,M31,18,gestures/baby_POS.mp4,bl_nket,a,S,baby,1,17,1.191817,a,TRUE
535,M31,19,gestures/cat_PL.mp4,sl_ep,e,S,cat,1,18,1.420852,e,TRUE
536,M31,20,gestures/baby_PL.mp4,sm_le,i,S,baby,1,19,1.0811981,i,TRUE
537,M31,21,gestures/girl_POS.mp4,ha_r,i,S,girl,1,20,1.2236745,i,TRUE
538,M31,22,gestures/car_PL.mp4,m_ve,o,S,car,1,21,1.117666,o,TRUE
539,M31,23,gestures/frog_POS.mp4,tong_e,u,S,frog,1,22,1.2674439,u,TRUE
540,M31,24,gestures/car_PL.mp4,cr_sh,a,S,car,1,23,1.1146686,a,TRUE
541,M31,25,gestures/baby_POS.mp4,t_ddy,e,S,baby,1,24,1.3173232,e,TRUE
542,M31,26,gestures/dog_POS.mp4,to_th,o,S,dog,1,25,1.1202164,o,TRUE
543,M31,27,gestures/car_POS.mp4,whe_l,e,S,car,1,26,1.2486025,e,TRUE
544,M31,28,gestures/baby_PL.mp4,cr_wl,a,S,baby,1,27,1.0711287,a,TRUE
545,M31,29,gestures/horse_POS.mp4,mo_th,u,S,horse,1,28,1.7763575,u,TRUE
546,M31,30,gestures/horse_POS.mp4,h_ad,e,S,horse,1,29,2.3530047,e,TRUE
547,M31,31,gestures/boy_PL.mp4,po_nt,i,S,boy,1,30,1.1103021,i,TRUE
548,M31,32,gestures/cat_POS.mp4,ta_l,i,S,cat,1,31,1.6461965,i,TRUE
549,M31,33,gestures/frog_S.mp4,j_mp,u,G,frog,1,32,1.3467766,u,TRUE
550,M31,34,gestures/frog_S.mp4,tong_e,u,G,frog,1,33,1.1852529,u,TRUE
551,M31,35,gestures/horse_S.mp4,w_lk,a,G,horse,1,34,1.2661085,a,TRUE
552,M31,36,gestures/girl_S.mp4,wh_stle,i,G,girl,1,35,1.1696061,i,TRUE
553,M31,37,gestures/boy_S.mp4,t-sh_rt,i,G,boy,1,36,1.2186354,i,TRUE
554,M31,38,gestures/dog_S.mp4,b_rk,a,G,dog,1,37,1.6406201,a,TRUE
555,M31,39,gestures/dog_S.mp4,n_ck,e,G,dog,1,38,1.2007017,e,TRUE
556,M31,40,gestures/cat_S.mp4,sl_ep,e,G,cat,1,39,1.3237932,e,TRUE
557,M31,41,gestures/baby_S.mp4,cr_wl,a,G,baby,1,40,1.1545767,a,TRUE
558,M31,42,gestures/car_S.mp4,m_ve,o,G,car,1,41,1.068321,o,TRUE
559,M31,43,gestures/baby_S.mp4,t_ddy,e,G,baby,1,42,1.1617384,e,TRUE
560,M31,44,gestures/dog_S.mp4,pl_y,a,G,dog,1,43,1.1535423,a,TRUE
561,M31,45,gestures/dog_S.mp4,to_th,o,G,dog,1,44,1.0291026,o,TRUE
562,M31,46,gestures/boy_S.mp4,po_nt,i,G,boy,1,45,1.0423347,i,TRUE
563,M31,47,gestures/cat_S.mp4,n_se,o,G,cat,1,46,1.3723738,o,TRUE
564,M31,48,gestures/boy_S.mp4,w_ve,a,G,boy,1,47,1.0779806,a,TRUE
565,M31,49,gestures/girl_S.mp4,dr_ss,e,G,girl,1,48,1.2842649,e,TRUE
566,M31,50,gestures/girl_S.mp4,h_g,u,G,girl,1,49,1.6299654,a,FALSE
567,M31,51,gestures/horse_S.mp4,mo_th,u,G,horse,1,50,1.2805457,u,TRUE
568,M31,52,gestures/horse_S.mp4,h_ad,e,G,horse,1,51,1.305605,e,TRUE
569,M31,53,gestures/horse_S.mp4,k_ck,i,G,horse,1,52,1.0220622,i,TRUE
570,M31,54,gestures/baby_S.mp4,sm_le,i,G,baby,1,53,0.9511256,i,TRUE
571,M31,55,gestures/girl_S.mp4,ha_r,i,G,girl,1,54,1.0240694,i,TRUE
572,M31,56,gestures/cat_S.mp4,lo_k,o,G,cat,1,55,1.0339198,o,TRUE
573,M31,57,gestures/boy_S.mp4,bo_k,o,G,boy,1,56,0.9970805,o,TRUE
574,M31,58,gestures/cat_S.mp4,ta_l,i,G,cat,1,57,0.9746338,i,TRUE
575,M31,59,gestures/car_S.mp4,whe_l,e,G,car,1,58,1.0914909,e,TRUE
576,M31,60,gestures/frog_S.mp4,list_n,e,G,frog,1,59,1.0970771,e,TRUE
577,M31,61,gestures/frog_S.mp4,fo_t,o,G,frog,1,60,1.1120135,o,TRUE
578,M31,62,gestures/car_S.mp4,wind_w,o,G,car,1,61,1.0717107,o,TRUE
579,M31,63,gestures/car_S.mp4,cr_sh,a,G,car,1,62,1.0193456,a,TRUE
580,M31,64,gestures/baby_S.mp4,bl_nket,a,G,baby,1,63,1.0610304,a,TRUE
581,M40,1,gestures/boy_PL.mp4,po_nt,i,S,boy,1,0,1.9364953,i,TRUE
582,M40,2,gestures/horse_POS.mp4,h_ad,e,S,horse,1,1,16.649595,e,TRUE
583,M40,3,gestures/baby_POS.mp4,t_ddy,e,S,baby,1,2,1.3409995,e,TRUE
584,M40,4,gestures/baby_PL.mp4,sm_le,i,S,baby,1,3,1.2401212,i,TRUE
585,M40,5,gestures/boy_POS.mp4,bo_k,o,S,boy,1,4,1.4823444,o,TRUE
586,M40,6,gestures/dog_PL.mp4,b_rk,a,S,dog,1,5,2.449845,a,TRUE
587,M40,7,gestures/girl_POS.mp4,dr_ss,e,S,girl,1,6,1.2843343,e,TRUE
588,M40,8,gestures/car_PL.mp4,cr_sh,a,S,car,1,7,1.3537376,a,TRUE
589,M40,9,gestures/baby_PL.mp4,cr_wl,a,S,baby,1,8,3.5476818,o,FALSE
590,M40,10,gestures/dog_PL.mp4,pl_y,a,S,dog,1,9,1.2733092,a,TRUE
591,M40,11,gestures/car_POS.mp4,whe_l,e,S,car,1,10,1.3916194,e,TRUE
592,M40,12,gestures/boy_POS.mp4,t-sh_rt,i,S,boy,1,11,1.7348931,i,TRUE
593,M40,13,gestures/cat_PL.mp4,lo_k,o,S,cat,1,12,1.2000424,o,TRUE
594,M40,14,gestures/horse_PL.mp4,k_ck,i,S,horse,1,13,1.8074434,i,TRUE
595,M40,15,gestures/girl_PL.mp4,h_g,u,S,girl,1,14,1.6343489,u,TRUE
596,M40,16,gestures/cat_POS.mp4,ta_l,i,S,cat,1,15,2.0383391,i,TRUE
597,M40,17,gestures/dog_POS.mp4,n_ck,e,S,dog,1,16,1.651432,e,TRUE
598,M40,18,gestures/frog_POS.mp4,tong_e,u,S,frog,1,17,1.7415241,u,TRUE
599,M40,19,gestures/horse_POS.mp4,mo_th,u,S,horse,1,18,2.4166286,u,TRUE
600,M40,20,gestures/frog_POS.mp4,fo_t,o,S,frog,1,19,1.1860945,o,TRUE
601,M40,21,gestures/baby_POS.mp4,bl_nket,a,S,baby,1,20,1.3253422,a,TRUE
602,M40,22,gestures/car_PL.mp4,m_ve,o,S,car,1,21,1.1208478,o,TRUE
603,M40,23,gestures/girl_POS.mp4,ha_r,i,S,girl,1,22,1.0854732,i,TRUE
604,M40,24,gestures/frog_PL.mp4,list_n,e,S,frog,1,23,1.452169,e,TRUE
605,M40,25,gestures/horse_PL.mp4,w_lk,a,S,horse,1,24,1.1711154,a,TRUE
606,M40,26,gestures/girl_PL.mp4,wh_stle,i,S,girl,1,25,1.2943567,i,TRUE
607,M40,27,gestures/frog_PL.mp4,j_mp,u,S,frog,1,26,1.1539401,u,TRUE
608,M40,28,gestures/cat_PL.mp4,sl_ep,e,S,cat,1,27,1.2392138,e,TRUE
609,M40,29,gestures/car_POS.mp4,wind_w,o,S,car,1,28,1.4459078,o,TRUE
610,M40,30,gestures/cat_POS.mp4,n_se,o,S,cat,1,29,1.1996194,o,TRUE
611,M40,31,gestures/boy_PL.mp4,w_ve,a,S,boy,1,30,1.5556952,a,TRUE
612,M40,32,gestures/dog_POS.mp4,to_th,o,S,dog,1,31,1.2506589,o,TRUE
613,M40,33,gestures/frog_S.mp4,tong_e,u,G,frog,1,32,1.274041,u,TRUE
614,M40,34,gestures/girl_S.mp4,ha_r,i,G,girl,1,33,1.0185231,i,TRUE
615,M40,35,gestures/dog_S.mp4,to_th,o,G,dog,1,34,1.050502,o,TRUE
616,M40,36,gestures/dog_S.mp4,b_rk,a,G,dog,1,35,1.4655081,a,TRUE
617,M40,37,gestures/baby_S.mp4,bl_nket,a,G,baby,1,36,1.1948754,a,TRUE
618,M40,38,gestures/boy_S.mp4,po_nt,i,G,boy,1,37,2.0836508,i,TRUE
619,M40,39,gestures/horse_S.mp4,mo_th,u,G,horse,1,38,1.4496806,u,TRUE
620,M40,40,gestures/cat_S.mp4,n_se,o,G,cat,1,39,1.0763222,o,TRUE
621,M40,41,gestures/girl_S.mp4,dr_ss,e,G,girl,1,40,1.1491268,e,TRUE
622,M40,42,gestures/car_S.mp4,wind_w,o,G,car,1,41,1.389376,o,TRUE
623,M40,43,gestures/baby_S.mp4,t_ddy,e,G,baby,1,42,1.3173689,e,TRUE
624,M40,44,gestures/horse_S.mp4,h_ad,e,G,horse,1,43,1.2848972,e,TRUE
625,M40,45,gestures/car_S.mp4,cr_sh,a,G,car,1,44,1.2920263,a,TRUE
626,M40,46,gestures/girl_S.mp4,h_g,u,G,girl,1,45,1.3024474,u,TRUE
627,M40,47,gestures/boy_S.mp4,t-sh_rt,i,G,boy,1,46,1.3263757,i,TRUE
628,M40,48,gestures/boy_S.mp4,bo_k,o,G,boy,1,47,1.1345927,o,TRUE
629,M40,49,gestures/horse_S.mp4,w_lk,a,G,horse,1,48,1.2649825,a,TRUE
630,M40,50,gestures/frog_S.mp4,fo_t,o,G,frog,1,49,1.1549921,o,TRUE
631,M40,51,gestures/cat_S.mp4,lo_k,o,G,cat,1,50,1.4198501,o,TRUE
632,M40,52,gestures/baby_S.mp4,sm_le,i,G,baby,1,51,1.2069156,i,TRUE
633,M40,53,gestures/girl_S.mp4,wh_stle,i,G,girl,1,52,1.31622,i,TRUE
634,M40,54,gestures/horse_S.mp4,k_ck,i,G,horse,1,53,1.4062822,i,TRUE
635,M40,55,gestures/boy_S.mp4,w_ve,a,G,boy,1,54,1.2510972,a,TRUE
636,M40,56,gestures/car_S.mp4,whe_l,e,G,car,1,55,1.3574822,e,TRUE
637,M40,57,gestures/car_S.mp4,m_ve,o,G,car,1,56,1.5013647,o,TRUE
638,M40,58,gestures/dog_S.mp4,pl_y,a,G,dog,1,57,1.2173569,a,TRUE
639,M40,59,gestures/cat_S.mp4,sl_ep,e,G,cat,1,58,1.067242,e,TRUE
640,M40,60,gestures/dog_S.mp4,n_ck,e,G,dog,1,59,1.1457067,e,TRUE
641,M40,61,gestures/frog_S.mp4,list_n,e,G,frog,1,60,1.4174439,e,TRUE
642,M40,62,gestures/frog_S.mp4,j_mp,u,G,frog,1,61,1.1102881,u,TRUE
643,M40,63,gestures/cat_S.mp4,ta_l,i,G,cat,1,62,1.5095986,i,TRUE
644,M40,64,gestures/baby_S.mp4,cr_wl,a,G,baby,1,63,1.4019253,a,TRUE
645,M49,1,gestures/cat_PL.mp4,lo_k,o,S,cat,1,0,2.9868388,o,TRUE
646,M49,2,gestures/cat_POS.mp4,n_se,o,S,cat,1,1,1.6633447,o,TRUE
647,M49,3,gestures/girl_POS.mp4,ha_r,i,S,girl,1,2,1.176286,i,TRUE
648,M49,4,gestures/baby_PL.mp4,sm_le,i,S,baby,1,3,1.3038495,i,TRUE
649,M49,5,gestures/car_POS.mp4,wind_w,o,S,car,1,4,1.5258116,o,TRUE
650,M49,6,gestures/baby_POS.mp4,bl_nket,a,S,baby,1,5,2.0590532,a,TRUE
651,M49,7,gestures/dog_PL.mp4,b_rk,a,S,dog,1,6,1.7571292,a,TRUE
652,M49,8,gestures/baby_PL.mp4,cr_wl,a,S,baby,1,7,1.344181,a,TRUE
653,M49,9,gestures/boy_PL.mp4,po_nt,i,S,boy,1,8,1.2163954,i,TRUE
654,M49,10,gestures/horse_POS.mp4,mo_th,u,S,horse,1,9,1.5312251,u,TRUE
655,M49,11,gestures/boy_POS.mp4,t-sh_rt,i,S,boy,1,10,1.7603447,i,TRUE
656,M49,12,gestures/dog_PL.mp4,pl_y,a,S,dog,1,11,1.0866807,a,TRUE
657,M49,13,gestures/cat_POS.mp4,ta_l,i,S,cat,1,12,1.2600147,i,TRUE
658,M49,14,gestures/dog_POS.mp4,n_ck,e,S,dog,1,13,2.2316604,a,FALSE
659,M49,15,gestures/horse_PL.mp4,w_lk,a,S,horse,1,14,1.1703839,a,TRUE
660,M49,16,gestures/dog_POS.mp4,to_th,o,S,dog,1,15,2.2558136,o,TRUE
661,M49,17,gestures/girl_PL.mp4,h_g,u,S,girl,1,16,1.5665112,u,TRUE
662,M49,18,gestures/horse_PL.mp4,k_ck,i,S,horse,1,17,1.8814323,i,TRUE
663,M49,19,gestures/frog_POS.mp4,fo_t,o,S,frog,1,18,1.5068368,o,TRUE
664,M49,20,gestures/frog_PL.mp4,j_mp,u,S,frog,1,19,1.2445636,u,TRUE
665,M49,21,gestures/girl_PL.mp4,wh_stle,i,S,girl,1,20,1.4144832,i,TRUE
666,M49,22,gestures/car_POS.mp4,whe_l,e,S,car,1,21,1.5929394,e,TRUE
667,M49,23,gestures/baby_POS.mp4,t_ddy,e,S,baby,1,22,1.503465,e,TRUE
668,M49,24,gestures/frog_PL.mp4,list_n,e,S,frog,1,23,1.8240131,e,TRUE
669,M49,25,gestures/frog_POS.mp4,tong_e,u,S,frog,1,24,1.8081688,u,TRUE
670,M49,26,gestures/car_PL.mp4,cr_sh,a,S,car,1,25,1.1705959,a,TRUE
671,M49,27,gestures/boy_PL.mp4,w_ve,a,S,boy,1,26,1.3950051,a,TRUE
672,M49,28,gestures/horse_POS.mp4,h_ad,e,S,horse,1,27,2.274334,e,TRUE
673,M49,29,gestures/cat_PL.mp4,sl_ep,e,S,cat,1,28,1.8305151,e,TRUE
674,M49,30,gestures/car_PL.mp4,m_ve,o,S,car,1,29,1.348832,o,TRUE
675,M49,31,gestures/boy_POS.mp4,bo_k,o,S,boy,1,30,1.0999608,o,TRUE
676,M49,32,gestures/girl_POS.mp4,dr_ss,e,S,girl,1,31,1.1857741,e,TRUE
677,M49,33,gestures/girl_S.mp4,ha_r,i,G,girl,1,32,1.2379999,i,TRUE
678,M49,34,gestures/horse_S.mp4,k_ck,i,G,horse,1,33,1.8632411,i,TRUE
679,M49,35,gestures/girl_S.mp4,dr_ss,e,G,girl,1,34,1.4017842,e,TRUE
680,M49,36,gestures/car_S.mp4,cr_sh,a,G,car,1,35,1.2610726,a,TRUE
681,M49,37,gestures/girl_S.mp4,wh_stle,i,G,girl,1,36,1.2385019,i,TRUE
682,M49,38,gestures/dog_S.mp4,b_rk,a,G,dog,1,37,1.2075726,a,TRUE
683,M49,39,gestures/car_S.mp4,m_ve,o,G,car,1,38,1.1201824,o,TRUE
684,M49,40,gestures/car_S.mp4,wind_w,o,G,car,1,39,1.3677688,o,TRUE
685,M49,41,gestures/boy_S.mp4,t-sh_rt,i,G,boy,1,40,1.5052758,i,TRUE
686,M49,42,gestures/baby_S.mp4,t_ddy,e,G,baby,1,41,1.7792115,e,TRUE
687,M49,43,gestures/baby_S.mp4,bl_nket,a,G,baby,1,42,1.3715721,a,TRUE
688,M49,44,gestures/dog_S.mp4,n_ck,e,G,dog,1,43,1.5692987,e,TRUE
689,M49,45,gestures/frog_S.mp4,tong_e,u,G,frog,1,44,1.474443,u,TRUE
690,M49,46,gestures/boy_S.mp4,bo_k,o,G,boy,1,45,1.1531508,o,TRUE
691,M49,47,gestures/baby_S.mp4,sm_le,i,G,baby,1,46,1.0366642,i,TRUE
692,M49,48,gestures/frog_S.mp4,j_mp,u,G,frog,1,47,1.1465559,u,TRUE
693,M49,49,gestures/horse_S.mp4,h_ad,e,G,horse,1,48,1.7828621,e,TRUE
694,M49,50,gestures/girl_S.mp4,h_g,u,G,girl,1,49,1.1206828,u,TRUE
695,M49,51,gestures/cat_S.mp4,n_se,o,G,cat,1,50,1.4949899,o,TRUE
696,M49,52,gestures/cat_S.mp4,lo_k,o,G,cat,1,51,1.2635831,o,TRUE
697,M49,53,gestures/frog_S.mp4,fo_t,o,G,frog,1,52,1.1649458,o,TRUE
698,M49,54,gestures/cat_S.mp4,ta_l,i,G,cat,1,53,1.2414484,i,TRUE
699,M49,55,gestures/frog_S.mp4,list_n,e,G,frog,1,54,1.3663344,e,TRUE
700,M49,56,gestures/car_S.mp4,whe_l,e,G,car,1,55,1.2173538,e,TRUE
701,M49,57,gestures/horse_S.mp4,w_lk,a,G,horse,1,56,1.103542,a,TRUE
702,M49,58,gestures/boy_S.mp4,po_nt,i,G,boy,1,57,1.0185503,i,TRUE
703,M49,59,gestures/boy_S.mp4,w_ve,a,G,boy,1,58,1.2389127,a,TRUE
704,M49,60,gestures/baby_S.mp4,cr_wl,a,G,baby,1,59,1.073057,a,TRUE
705,M49,61,gestures/dog_S.mp4,to_th,o,G,dog,1,60,1.4552735,o,TRUE
706,M49,62,gestures/cat_S.mp4,sl_ep,e,G,cat,1,61,1.2569237,e,TRUE
707,M49,63,gestures/dog_S.mp4,pl_y,a,G,dog,1,62,1.0497118,a,TRUE
708,M49,64,gestures/horse_S.mp4,mo_th,u,G,horse,1,63,2.1237223,u,TRUE
709,N49,1,gestures/car_POS.mp4,whe_l,e,S,car,1,0,0.93494403,e,TRUE
710,N49,2,gestures/dog_PL.mp4,pl_y,a,S,dog,1,1,0.679551,a,TRUE
711,N49,3,gestures/baby_PL.mp4,sm_le,i,S,baby,1,2,0.7094635,i,TRUE
712,N49,4,gestures/horse_PL.mp4,k_ck,i,S,horse,1,3,0.6760067,i,TRUE
713,N49,5,gestures/girl_PL.mp4,h_g,u,S,girl,1,4,0.86982864,u,TRUE
714,N49,6,gestures/girl_POS.mp4,ha_r,i,S,girl,1,5,0.778707,i,TRUE
715,N49,7,gestures/car_POS.mp4,wind_w,o,S,car,1,6,1.3767507,i,FALSE
716,N49,8,gestures/boy_POS.mp4,t-sh_rt,i,S,boy,1,7,0.9944775,i,TRUE
717,N49,9,gestures/baby_POS.mp4,t_ddy,e,S,baby,1,8,0.7933429,e,TRUE
718,N49,10,gestures/cat_PL.mp4,lo_k,o,S,cat,1,9,0.81697255,o,TRUE
719,N49,11,gestures/horse_PL.mp4,w_lk,a,S,horse,1,10,0.69590837,a,TRUE
720,N49,12,gestures/cat_POS.mp4,n_se,o,S,cat,1,11,0.74697435,o,TRUE
721,N49,13,gestures/cat_PL.mp4,sl_ep,e,S,cat,1,12,0.8760943,e,TRUE
722,N49,14,gestures/dog_POS.mp4,to_th,o,S,dog,1,13,0.8469214,o,TRUE
723,N49,15,gestures/car_PL.mp4,m_ve,o,S,car,1,14,0.7724587,o,TRUE
724,N49,16,gestures/frog_PL.mp4,j_mp,u,S,frog,1,15,0.8470153,u,TRUE
725,N49,17,gestures/frog_POS.mp4,tong_e,u,S,frog,1,16,0.92576814,u,TRUE
726,N49,18,gestures/frog_PL.mp4,list_n,e,S,frog,1,17,0.8660151,i,FALSE
727,N49,19,gestures/boy_PL.mp4,po_nt,i,S,boy,1,18,0.9881971,i,TRUE
728,N49,20,gestures/baby_PL.mp4,cr_wl,a,S,baby,1,19,0.7656008,a,TRUE
729,N49,21,gestures/horse_POS.mp4,h_ad,e,S,horse,1,20,0.9581011,e,TRUE
730,N49,22,gestures/boy_PL.mp4,w_ve,a,S,boy,1,21,0.7205652,a,TRUE
731,N49,23,gestures/baby_POS.mp4,bl_nket,a,S,baby,1,22,0.6982323,a,TRUE
732,N49,24,gestures/car_PL.mp4,cr_sh,a,S,car,1,23,0.62874144,a,TRUE
733,N49,25,gestures/girl_PL.mp4,wh_stle,i,S,girl,1,24,0.8013439,i,TRUE
734,N49,26,gestures/dog_PL.mp4,b_rk,a,S,dog,1,25,0.63811725,a,TRUE
735,N49,27,gestures/frog_POS.mp4,fo_t,o,S,frog,1,26,0.8682712,o,TRUE
736,N49,28,gestures/horse_POS.mp4,mo_th,u,S,horse,1,27,0.8646322,u,TRUE
737,N49,29,gestures/dog_POS.mp4,n_ck,e,S,dog,1,28,0.7046288,e,TRUE
738,N49,30,gestures/cat_POS.mp4,ta_l,i,S,cat,1,29,0.88815564,i,TRUE
739,N49,31,gestures/boy_POS.mp4,bo_k,o,S,boy,1,30,0.71081203,o,TRUE
740,N49,32,gestures/girl_POS.mp4,dr_ss,e,S,girl,1,31,0.6639794,e,TRUE
741,N49,33,gestures/cat_S.mp4,ta_l,i,G,cat,1,32,0.80154556,i,TRUE
742,N49,34,gestures/boy_S.mp4,po_nt,i,G,boy,1,33,0.8947965,i,TRUE
743,N49,35,gestures/horse_S.mp4,mo_th,u,G,horse,1,34,0.90293735,u,TRUE
744,N49,36,gestures/car_S.mp4,wind_w,o,G,car,1,35,2.0837069,o,TRUE
745,N49,37,gestures/cat_S.mp4,sl_ep,e,G,cat,1,36,0.96997297,e,TRUE
746,N49,38,gestures/frog_S.mp4,list_n,e,G,frog,1,37,1.3115802,e,TRUE
747,N49,39,gestures/girl_S.mp4,h_g,u,G,girl,1,38,0.9471626,u,TRUE
748,N49,40,gestures/baby_S.mp4,cr_wl,a,G,baby,1,39,0.82270193,a,TRUE
749,N49,41,gestures/boy_S.mp4,t-sh_rt,i,G,boy,1,40,0.79848903,i,TRUE
750,N49,42,gestures/boy_S.mp4,w_ve,a,G,boy,1,41,0.7613544,a,TRUE
751,N49,43,gestures/dog_S.mp4,to_th,o,G,dog,1,42,0.8735435,o,TRUE
752,N49,44,gestures/dog_S.mp4,b_rk,a,G,dog,1,43,0.7277218,a,TRUE
753,N49,45,gestures/baby_S.mp4,bl_nket,a,G,baby,1,44,0.7141898,a,TRUE
754,N49,46,gestures/horse_S.mp4,k_ck,i,G,horse,1,45,0.7478335,i,TRUE
755,N49,47,gestures/car_S.mp4,m_ve,o,G,car,1,46,0.851361,o,TRUE
756,N49,48,gestures/baby_S.mp4,sm_le,i,G,baby,1,47,0.84203595,i,TRUE
757,N49,49,gestures/girl_S.mp4,dr_ss,e,G,girl,1,48,0.7485761,e,TRUE
758,N49,50,gestures/girl_S.mp4,wh_stle,i,G,girl,1,49,0.7832549,i,TRUE
759,N49,51,gestures/girl_S.mp4,ha_r,i,G,girl,1,50,0.9139743,i,TRUE
760,N49,52,gestures/cat_S.mp4,lo_k,o,G,cat,1,51,0.7119589,o,TRUE
761,N49,53,gestures/horse_S.mp4,h_ad,e,G,horse,1,52,0.82838786,e,TRUE
762,N49,54,gestures/baby_S.mp4,t_ddy,e,G,baby,1,53,0.79084295,e,TRUE
763,N49,55,gestures/car_S.mp4,cr_sh,a,G,car,1,54,0.86481315,a,TRUE
764,N49,56,gestures/frog_S.mp4,fo_t,o,G,frog,1,55,0.79312754,o,TRUE
765,N49,57,gestures/boy_S.mp4,bo_k,o,G,boy,1,56,0.7750934,o,TRUE
766,N49,58,gestures/horse_S.mp4,w_lk,a,G,horse,1,57,0.66119415,a,TRUE
767,N49,59,gestures/dog_S.mp4,n_ck,e,G,dog,1,58,0.7693381,e,TRUE
768,N49,60,gestures/dog_S.mp4,pl_y,a,G,dog,1,59,0.6976897,a,TRUE
769,N49,61,gestures/car_S.mp4,whe_l,e,G,car,1,60,0.7354806,e,TRUE
770,N49,62,gestures/frog_S.mp4,j_mp,u,G,frog,1,61,0.8228003,u,TRUE
771,N49,63,gestures/cat_S.mp4,n_se,o,G,cat,1,62,0.7744642,o,TRUE
772,N49,64,gestures/frog_S.mp4,tong_e,u,G,frog,1,63,0.8269474,u,TRUE
773,O34,1,gestures/baby_POS.mp4,t_ddy,e,S,baby,1,0,2.9308078,e,TRUE
774,O34,2,gestures/car_POS.mp4,whe_l,e,S,car,1,1,2.2052863,e,TRUE
775,O34,3,gestures/horse_PL.mp4,k_ck,i,S,horse,1,2,1.8695722,i,TRUE
776,O34,4,gestures/boy_POS.mp4,bo_k,o,S,boy,1,3,1.4376867,o,TRUE
777,O34,5,gestures/dog_PL.mp4,b_rk,a,S,dog,1,4,2.550605,a,TRUE
778,O34,6,gestures/dog_POS.mp4,to_th,o,S,dog,1,5,1.4220358,o,TRUE
779,O34,7,gestures/girl_POS.mp4,ha_r,i,S,girl,1,6,1.399179,i,TRUE
780,O34,8,gestures/horse_POS.mp4,h_ad,e,S,horse,1,7,2.2738419,e,TRUE
781,O34,9,gestures/boy_PL.mp4,po_nt,i,S,boy,1,8,1.4464809,i,TRUE
782,O34,10,gestures/cat_PL.mp4,sl_ep,e,S,cat,1,9,1.4465374,e,TRUE
783,O34,11,gestures/horse_PL.mp4,w_lk,a,S,horse,1,10,1.3356283,a,TRUE
784,O34,12,gestures/boy_PL.mp4,w_ve,a,S,boy,1,11,1.4496733,a,TRUE
785,O34,13,gestures/baby_PL.mp4,sm_le,i,S,baby,1,12,1.3480153,i,TRUE
786,O34,14,gestures/car_PL.mp4,cr_sh,a,S,car,1,13,1.4319987,a,TRUE
787,O34,15,gestures/baby_POS.mp4,bl_nket,a,S,baby,1,14,1.2281867,a,TRUE
788,O34,16,gestures/cat_PL.mp4,lo_k,o,S,cat,1,15,1.3207773,o,TRUE
789,O34,17,gestures/dog_POS.mp4,n_ck,e,S,dog,1,16,45.460247,i,FALSE
790,O34,18,gestures/car_PL.mp4,m_ve,o,S,car,1,17,1.4001622,o,TRUE
791,O34,19,gestures/dog_PL.mp4,pl_y,a,S,dog,1,18,1.3858224,a,TRUE
792,O34,20,gestures/girl_POS.mp4,dr_ss,e,S,girl,1,19,1.3444283,e,TRUE
793,O34,21,gestures/baby_PL.mp4,cr_wl,a,S,baby,1,20,1.3238244,a,TRUE
794,O34,22,gestures/boy_POS.mp4,t-sh_rt,i,S,boy,1,21,1.9634864,i,TRUE
795,O34,23,gestures/car_POS.mp4,wind_w,o,S,car,1,22,2.3380184,o,TRUE
796,O34,24,gestures/frog_POS.mp4,tong_e,u,S,frog,1,23,2.0658982,u,TRUE
797,O34,25,gestures/cat_POS.mp4,ta_l,i,S,cat,1,24,6.430236,i,TRUE
798,O34,26,gestures/girl_PL.mp4,h_g,u,S,girl,1,25,1.6412098,u,TRUE
799,O34,27,gestures/girl_PL.mp4,wh_stle,i,S,girl,1,26,1.3110601,i,TRUE
800,O34,28,gestures/horse_POS.mp4,mo_th,u,S,horse,1,27,2.4298127,u,TRUE
801,O34,29,gestures/frog_POS.mp4,fo_t,o,S,frog,1,28,2.2822227,o,TRUE
802,O34,30,gestures/cat_POS.mp4,n_se,o,S,cat,1,29,2.5030043,o,TRUE
803,O34,31,gestures/frog_PL.mp4,j_mp,u,S,frog,1,30,1.396602,u,TRUE
804,O34,32,gestures/frog_PL.mp4,list_n,e,S,frog,1,31,1.9044172,e,TRUE
805,O34,33,gestures/baby_S.mp4,cr_wl,a,G,baby,1,32,2.13069,a,TRUE
806,O34,34,gestures/horse_S.mp4,h_ad,e,G,horse,1,33,1.756447,e,TRUE
807,O34,35,gestures/dog_S.mp4,n_ck,e,G,dog,1,34,3.5846286,e,TRUE
808,O34,36,gestures/boy_S.mp4,po_nt,i,G,boy,1,35,1.2628543,i,TRUE
809,O34,37,gestures/girl_S.mp4,h_g,u,G,girl,1,36,1.2049028,u,TRUE
810,O34,38,gestures/car_S.mp4,m_ve,o,G,car,1,37,1.4043453,o,TRUE
811,O34,39,gestures/boy_S.mp4,bo_k,o,G,boy,1,38,1.1385224,o,TRUE
812,O34,40,gestures/boy_S.mp4,w_ve,a,G,boy,1,39,1.5965039,a,TRUE
813,O34,41,gestures/frog_S.mp4,j_mp,u,G,frog,1,40,1.1936231,u,TRUE
814,O34,42,gestures/girl_S.mp4,wh_stle,i,G,girl,1,41,1.3547179,i,TRUE
815,O34,43,gestures/dog_S.mp4,to_th,o,G,dog,1,42,1.4594363,o,TRUE
816,O34,44,gestures/baby_S.mp4,bl_nket,a,G,baby,1,43,1.4287227,a,TRUE
817,O34,45,gestures/horse_S.mp4,mo_th,u,G,horse,1,44,1.468044,u,TRUE
818,O34,46,gestures/car_S.mp4,whe_l,e,G,car,1,45,1.2416981,e,TRUE
819,O34,47,gestures/cat_S.mp4,ta_l,i,G,cat,1,46,1.9284688,i,TRUE
820,O34,48,gestures/horse_S.mp4,k_ck,i,G,horse,1,47,1.163309,i,TRUE
821,O34,49,gestures/horse_S.mp4,w_lk,a,G,horse,1,48,1.2128459,a,TRUE
822,O34,50,gestures/boy_S.mp4,t-sh_rt,i,G,boy,1,49,1.7219818,i,TRUE
823,O34,51,gestures/dog_S.mp4,b_rk,a,G,dog,1,50,1.5473045,a,TRUE
824,O34,52,gestures/baby_S.mp4,sm_le,i,G,baby,1,51,1.4678881,i,TRUE
825,O34,53,gestures/cat_S.mp4,lo_k,o,G,cat,1,52,1.318923,o,TRUE
826,O34,54,gestures/dog_S.mp4,pl_y,a,G,dog,1,53,1.137004,a,TRUE
827,O34,55,gestures/frog_S.mp4,fo_t,o,G,frog,1,54,1.274904,o,TRUE
828,O34,56,gestures/girl_S.mp4,dr_ss,e,G,girl,1,55,1.136863,e,TRUE
829,O34,57,gestures/cat_S.mp4,n_se,o,G,cat,1,56,1.6227268,o,TRUE
830,O34,58,gestures/frog_S.mp4,tong_e,u,G,frog,1,57,1.4700269,u,TRUE
831,O34,59,gestures/cat_S.mp4,sl_ep,e,G,cat,1,58,1.2223641,e,TRUE
832,O34,60,gestures/car_S.mp4,cr_sh,a,G,car,1,59,1.2855668,a,TRUE
833,O34,61,gestures/frog_S.mp4,list_n,e,G,frog,1,60,1.465811,e,TRUE
834,O34,62,gestures/girl_S.mp4,ha_r,i,G,girl,1,61,1.2460939,i,TRUE
835,O34,63,gestures/baby_S.mp4,t_ddy,e,G,baby,1,62,1.3570608,e,TRUE
836,O34,64,gestures/car_S.mp4,wind_w,o,G,car,1,63,1.5336654,o,TRUE
837,R15,1,gestures/dog_S.mp4,to_th,o,G,dog,1,0,2.0881062,o,TRUE
838,R15,2,gestures/car_S.mp4,m_ve,o,G,car,1,1,1.4813205,o,TRUE
839,R15,3,gestures/dog_S.mp4,b_rk,a,G,dog,1,2,1.3207436,a,TRUE
840,R15,4,gestures/cat_S.mp4,n_se,o,G,cat,1,3,1.2633408,o,TRUE
841,R15,5,gestures/horse_S.mp4,mo_th,u,G,horse,1,4,3.4242206,o,FALSE
842,R15,6,gestures/frog_S.mp4,j_mp,u,G,frog,1,5,1.128933,u,TRUE
843,R15,7,gestures/horse_S.mp4,k_ck,i,G,horse,1,6,1.6979287,i,TRUE
844,R15,8,gestures/baby_S.mp4,bl_nket,a,G,baby,1,7,1.4527179,a,TRUE
845,R15,9,gestures/car_S.mp4,wind_w,o,G,car,1,8,1.5823349,o,TRUE
846,R15,10,gestures/boy_S.mp4,t-sh_rt,i,G,boy,1,9,1.601026,i,TRUE
847,R15,11,gestures/horse_S.mp4,w_lk,a,G,horse,1,10,0.9938146,a,TRUE
848,R15,12,gestures/baby_S.mp4,sm_le,i,G,baby,1,11,1.6763431,i,TRUE
849,R15,13,gestures/girl_S.mp4,dr_ss,e,G,girl,1,12,1.8441114,e,TRUE
850,R15,14,gestures/girl_S.mp4,h_g,u,G,girl,1,13,1.1806026,u,TRUE
851,R15,15,gestures/frog_S.mp4,list_n,e,G,frog,1,14,2.3333645,e,TRUE
852,R15,16,gestures/boy_S.mp4,po_nt,i,G,boy,1,15,1.1103125,i,TRUE
853,R15,17,gestures/boy_S.mp4,w_ve,a,G,boy,1,16,3.483047,o,FALSE
854,R15,18,gestures/girl_S.mp4,ha_r,i,G,girl,1,17,1.2706077,i,TRUE
855,R15,19,gestures/car_S.mp4,whe_l,e,G,car,1,18,1.2793303,e,TRUE
856,R15,20,gestures/horse_S.mp4,h_ad,e,G,horse,1,19,1.4624543,e,TRUE
857,R15,21,gestures/cat_S.mp4,lo_k,o,G,cat,1,20,1.1191505,o,TRUE
858,R15,22,gestures/frog_S.mp4,fo_t,o,G,frog,1,21,1.2577047,o,TRUE
859,R15,23,gestures/frog_S.mp4,tong_e,u,G,frog,1,22,1.8644413,u,TRUE
860,R15,24,gestures/girl_S.mp4,wh_stle,i,G,girl,1,23,2.2594898,a,FALSE
861,R15,25,gestures/cat_S.mp4,ta_l,i,G,cat,1,24,1.1818482,i,TRUE
862,R15,26,gestures/boy_S.mp4,bo_k,o,G,boy,1,25,0.97723395,o,TRUE
863,R15,27,gestures/baby_S.mp4,cr_wl,a,G,baby,1,26,1.514578,o,FALSE
864,R15,28,gestures/cat_S.mp4,sl_ep,e,G,cat,1,27,1.6363318,e,TRUE
865,R15,29,gestures/baby_S.mp4,t_ddy,e,G,baby,1,28,1.2284979,e,TRUE
866,R15,30,gestures/dog_S.mp4,pl_y,a,G,dog,1,29,1.440741,a,TRUE
867,R15,31,gestures/dog_S.mp4,n_ck,e,G,dog,1,30,1.5868502,i,FALSE
868,R15,32,gestures/car_S.mp4,cr_sh,a,G,car,1,31,1.1675128,e,FALSE
869,R15,33,gestures/dog_POS.mp4,n_ck,e,S,dog,1,32,1.8853251,a,FALSE
870,R15,34,gestures/horse_PL.mp4,k_ck,i,S,horse,1,33,1.4437635,i,TRUE
871,R15,35,gestures/car_POS.mp4,wind_w,o,S,car,1,34,1.4818187,o,TRUE
872,R15,36,gestures/cat_POS.mp4,n_se,o,S,cat,1,35,1.055928,o,TRUE
873,R15,37,gestures/horse_POS.mp4,h_ad,e,S,horse,1,36,1.4524914,e,TRUE
874,R15,38,gestures/baby_POS.mp4,t_ddy,e,S,baby,1,37,1.0170913,e,TRUE
875,R15,39,gestures/boy_PL.mp4,w_ve,a,S,boy,1,38,1.2787774,o,FALSE
876,R15,40,gestures/dog_PL.mp4,pl_y,a,S,dog,1,39,1.3233685,a,TRUE
877,R15,41,gestures/frog_POS.mp4,fo_t,o,S,frog,1,40,1.048066,o,TRUE
878,R15,42,gestures/baby_POS.mp4,bl_nket,a,S,baby,1,41,1.5359938,a,TRUE
879,R15,43,gestures/frog_PL.mp4,j_mp,u,S,frog,1,42,1.0447594,i,FALSE
880,R15,44,gestures/baby_PL.mp4,cr_wl,a,S,baby,1,43,1.3528851,o,FALSE
881,R15,45,gestures/boy_POS.mp4,t-sh_rt,i,S,boy,1,44,2.1157575,i,TRUE
882,R15,46,gestures/cat_PL.mp4,lo_k,o,S,cat,1,45,1.1318634,o,TRUE
883,R15,47,gestures/cat_PL.mp4,sl_ep,e,S,cat,1,46,1.2038195,e,TRUE
884,R15,48,gestures/girl_PL.mp4,wh_stle,i,S,girl,1,47,3.0540493,i,TRUE
885,R15,49,gestures/car_PL.mp4,m_ve,o,S,car,1,48,0.9782895,o,TRUE
886,R15,50,gestures/car_POS.mp4,whe_l,e,S,car,1,49,1.2038449,e,TRUE
887,R15,51,gestures/girl_POS.mp4,dr_ss,e,S,girl,1,50,1.0372195,e,TRUE
888,R15,52,gestures/horse_POS.mp4,mo_th,u,S,horse,1,51,1.5164788,o,FALSE
889,R15,53,gestures/dog_POS.mp4,to_th,o,S,dog,1,52,3.0585666,o,TRUE
890,R15,54,gestures/frog_POS.mp4,tong_e,u,S,frog,1,53,2.2644782,u,TRUE
891,R15,55,gestures/horse_PL.mp4,w_lk,a,S,horse,1,54,1.297617,a,TRUE
892,R15,56,gestures/baby_PL.mp4,sm_le,i,S,baby,1,55,1.6472571,i,TRUE
893,R15,57,gestures/girl_POS.mp4,ha_r,i,S,girl,1,56,1.5270839,i,TRUE
894,R15,58,gestures/frog_PL.mp4,list_n,e,S,frog,1,57,2.020851,e,TRUE
895,R15,59,gestures/car_PL.mp4,cr_sh,a,S,car,1,58,1.1709604,a,TRUE
896,R15,60,gestures/boy_POS.mp4,bo_k,o,S,boy,1,59,1.4442081,o,TRUE
897,R15,61,gestures/girl_PL.mp4,h_g,u,S,girl,1,60,1.5523356,u,TRUE
898,R15,62,gestures/cat_POS.mp4,ta_l,i,S,cat,1,61,1.9960943,i,TRUE
899,R15,63,gestures/dog_PL.mp4,b_rk,a,S,dog,1,62,1.7487078,a,TRUE
900,R15,64,gestures/boy_PL.mp4,po_nt,i,S,boy,1,63,1.8776723,i,TRUE
901,S46,1,gestures/girl_S.mp4,ha_r,i,G,girl,1,0,1.7294871,i,TRUE
902,S46,2,gestures/cat_S.mp4,ta_l,i,G,cat,1,1,1.5805477,i,TRUE
903,S46,3,gestures/boy_S.mp4,w_ve,a,G,boy,1,2,2.6928952,a,TRUE
904,S46,4,gestures/frog_S.mp4,tong_e,u,G,frog,1,3,1.6819407,u,TRUE
905,S46,5,gestures/cat_S.mp4,sl_ep,e,G,cat,1,4,2.025889,e,TRUE
906,S46,6,gestures/cat_S.mp4,n_se,o,G,cat,1,5,1.9856948,o,TRUE
907,S46,7,gestures/baby_S.mp4,bl_nket,a,G,baby,1,6,1.5207336,a,TRUE
908,S46,8,gestures/girl_S.mp4,wh_stle,i,G,girl,1,7,1.5682076,i,TRUE
909,S46,9,gestures/car_S.mp4,wind_w,o,G,car,1,8,1.4507414,o,TRUE
910,S46,10,gestures/frog_S.mp4,list_n,e,G,frog,1,9,1.615109,e,TRUE
911,S46,11,gestures/boy_S.mp4,bo_k,o,G,boy,1,10,1.416546,o,TRUE
912,S46,12,gestures/boy_S.mp4,t-sh_rt,i,G,boy,1,11,2.0493445,i,TRUE
913,S46,13,gestures/baby_S.mp4,sm_le,i,G,baby,1,12,1.302621,i,TRUE
914,S46,14,gestures/baby_S.mp4,t_ddy,e,G,baby,1,13,1.7798418,e,TRUE
915,S46,15,gestures/dog_S.mp4,pl_y,a,G,dog,1,14,1.303479,a,TRUE
916,S46,16,gestures/horse_S.mp4,w_lk,a,G,horse,1,15,1.6795126,a,TRUE
917,S46,17,gestures/dog_S.mp4,n_ck,e,G,dog,1,16,2.0222723,e,TRUE
918,S46,18,gestures/girl_S.mp4,h_g,u,G,girl,1,17,1.6889352,u,TRUE
919,S46,19,gestures/dog_S.mp4,b_rk,a,G,dog,1,18,1.8445733,a,TRUE
920,S46,20,gestures/girl_S.mp4,dr_ss,e,G,girl,1,19,1.3389744,e,TRUE
921,S46,21,gestures/horse_S.mp4,mo_th,u,G,horse,1,20,1.4824067,u,TRUE
922,S46,22,gestures/frog_S.mp4,fo_t,o,G,frog,1,21,2.2537384,o,TRUE
923,S46,23,gestures/baby_S.mp4,cr_wl,a,G,baby,1,22,1.7426249,a,TRUE
924,S46,24,gestures/dog_S.mp4,to_th,o,G,dog,1,23,2.2752814,o,TRUE
925,S46,25,gestures/car_S.mp4,m_ve,o,G,car,1,24,1.4464777,o,TRUE
926,S46,26,gestures/boy_S.mp4,po_nt,i,G,boy,1,25,1.4815656,i,TRUE
927,S46,27,gestures/car_S.mp4,whe_l,e,G,car,1,26,2.0257535,e,TRUE
928,S46,28,gestures/cat_S.mp4,lo_k,o,G,cat,1,27,1.2615987,o,TRUE
929,S46,29,gestures/horse_S.mp4,k_ck,i,G,horse,1,28,1.4555906,i,TRUE
930,S46,30,gestures/horse_S.mp4,h_ad,e,G,horse,1,29,3.6202514,e,TRUE
931,S46,31,gestures/car_S.mp4,cr_sh,a,G,car,1,30,1.3733957,a,TRUE
932,S46,32,gestures/frog_S.mp4,j_mp,u,G,frog,1,31,1.5750675,u,TRUE
933,S46,33,gestures/girl_PL.mp4,wh_stle,i,S,girl,1,32,1.4596791,i,TRUE
934,S46,34,gestures/horse_PL.mp4,w_lk,a,S,horse,1,33,1.5531204,a,TRUE
935,S46,35,gestures/baby_POS.mp4,bl_nket,a,S,baby,1,34,1.3069944,a,TRUE
936,S46,36,gestures/girl_PL.mp4,h_g,u,S,girl,1,35,1.4809917,u,TRUE
937,S46,37,gestures/horse_PL.mp4,k_ck,i,S,horse,1,36,1.2812768,i,TRUE
938,S46,38,gestures/dog_POS.mp4,n_ck,e,S,dog,1,37,1.5448867,e,TRUE
939,S46,39,gestures/frog_PL.mp4,list_n,e,S,frog,1,38,1.5587895,e,TRUE
940,S46,40,gestures/cat_POS.mp4,ta_l,i,S,cat,1,39,1.4906349,i,TRUE
941,S46,41,gestures/baby_PL.mp4,sm_le,i,S,baby,1,40,1.2090169,i,TRUE
942,S46,42,gestures/frog_POS.mp4,tong_e,u,S,frog,1,41,1.5414636,u,TRUE
943,S46,43,gestures/horse_POS.mp4,h_ad,e,S,horse,1,42,1.4560661,e,TRUE
944,S46,44,gestures/car_PL.mp4,m_ve,o,S,car,1,43,1.5090835,o,TRUE
945,S46,45,gestures/dog_PL.mp4,b_rk,a,S,dog,1,44,1.7086622,a,TRUE
946,S46,46,gestures/boy_POS.mp4,bo_k,o,S,boy,1,45,1.3830404,o,TRUE
947,S46,47,gestures/baby_PL.mp4,cr_wl,a,S,baby,1,46,1.4767209,a,TRUE
948,S46,48,gestures/boy_PL.mp4,po_nt,i,S,boy,1,47,1.2726992,i,TRUE
949,S46,49,gestures/frog_POS.mp4,fo_t,o,S,frog,1,48,1.5709535,o,TRUE
950,S46,50,gestures/cat_POS.mp4,n_se,o,S,cat,1,49,1.410383,o,TRUE
951,S46,51,gestures/car_PL.mp4,cr_sh,a,S,car,1,50,1.3411757,a,TRUE
952,S46,52,gestures/dog_POS.mp4,to_th,o,S,dog,1,51,1.283139,o,TRUE
953,S46,53,gestures/cat_PL.mp4,sl_ep,e,S,cat,1,52,1.1446098,e,TRUE
954,S46,54,gestures/horse_POS.mp4,mo_th,u,S,horse,1,53,1.319015,u,TRUE
955,S46,55,gestures/cat_PL.mp4,lo_k,o,S,cat,1,54,1.0591626,o,TRUE
956,S46,56,gestures/girl_POS.mp4,dr_ss,e,S,girl,1,55,1.2712806,e,TRUE
957,S46,57,gestures/frog_PL.mp4,j_mp,u,S,frog,1,56,2.0432494,u,TRUE
958,S46,58,gestures/boy_POS.mp4,t-sh_rt,i,S,boy,1,57,1.5541337,i,TRUE
959,S46,59,gestures/dog_PL.mp4,pl_y,a,S,dog,1,58,1.1574819,a,TRUE
960,S46,60,gestures/baby_POS.mp4,t_ddy,e,S,baby,1,59,1.6317219,e,TRUE
961,S46,61,gestures/girl_POS.mp4,ha_r,i,S,girl,1,60,1.2977318,i,TRUE
962,S46,62,gestures/car_POS.mp4,wind_w,o,S,car,1,61,1.1746511,o,TRUE
963,S46,63,gestures/boy_PL.mp4,w_ve,a,S,boy,1,62,1.1546264,a,TRUE
964,S46,64,gestures/car_POS.mp4,whe_l,e,S,car,1,63,2.012265,e,TRUE
