subject,TrialNumber,gestures,target,corrAns,condition,gestureSet,ran,order,RT,answer,correct
I42,1,gestures/girl_S.mp4,wh_stle,i,G,girl,1.0,0.0,2.4740505,i,True
I42,2,gestures/car_S.mp4,cr_sh,a,G,car,1.0,1.0,1.5271629,a,True
I42,3,gestures/dog_S.mp4,pl_y,a,G,dog,1.0,2.0,1.5122322,a,True
I42,4,gestures/cat_S.mp4,ta_l,i,G,cat,1.0,3.0,1.8773454,i,True
I42,5,gestures/girl_S.mp4,ha_r,i,G,girl,1.0,4.0,1.6388893,i,True
I42,6,gestures/frog_S.mp4,fo_t,o,G,frog,1.0,5.0,6.227633,e,False
I42,7,gestures/car_S.mp4,wind_w,o,G,car,1.0,6.0,2.8306112,o,True
I42,8,gestures/frog_S.mp4,j_mp,u,G,frog,1.0,7.0,1.7824516,u,True
I42,9,gestures/car_S.mp4,whe_l,e,G,car,1.0,8.0,3.5221171,e,True
I42,10,gestures/dog_S.mp4,n_ck,e,G,dog,1.0,9.0,1.5157187,e,True
I42,11,gestures/horse_S.mp4,w_lk,a,G,horse,1.0,10.0,2.9743307,o,False
I42,12,gestures/boy_S.mp4,bo_k,o,G,boy,1.0,11.0,4.7802534,o,True
I42,13,gestures/baby_S.mp4,sm_le,i,G,baby,1.0,12.0,1.6307913,i,True
I42,14,gestures/boy_S.mp4,t-sh_rt,i,G,boy,1.0,13.0,2.1632915,i,True
I42,15,gestures/boy_S.mp4,w_ve,a,G,boy,1.0,14.0,2.0932322,e,False
I42,16,gestures/boy_S.mp4,po_nt,i,G,boy,1.0,15.0,1.9125828,i,True
I42,17,gestures/baby_S.mp4,bl_nket,a,G,baby,1.0,16.0,2.6285503,a,True
I42,18,gestures/horse_S.mp4,k_ck,i,G,horse,1.0,17.0,1.8611071,i,True
I42,19,gestures/horse_S.mp4,mo_th,u,G,horse,1.0,18.0,2.188689,o,False
I42,20,gestures/cat_S.mp4,sl_ep,e,G,cat,1.0,19.0,2.1310213,e,True
I42,21,gestures/baby_S.mp4,t_ddy,e,G,baby,1.0,20.0,2.153341,e,True
I42,22,gestures/girl_S.mp4,dr_ss,e,G,girl,1.0,21.0,3.003839,e,True
I42,23,gestures/frog_S.mp4,list_n,e,G,frog,1.0,22.0,3.2328098,e,True
I42,24,gestures/cat_S.mp4,n_se,o,G,cat,1.0,23.0,3.547077,o,True
I42,25,gestures/dog_S.mp4,to_th,o,G,dog,1.0,24.0,1.7170296,o,True
I42,26,gestures/cat_S.mp4,lo_k,o,G,cat,1.0,25.0,4.566446,o,True
I42,27,gestures/frog_S.mp4,tong_e,u,G,frog,1.0,26.0,5.327992,u,True
I42,28,gestures/baby_S.mp4,cr_wl,a,G,baby,1.0,27.0,4.510193,a,True
I42,29,gestures/dog_S.mp4,b_rk,a,G,dog,1.0,28.0,3.3557746,u,False
I42,30,gestures/car_S.mp4,m_ve,o,G,car,1.0,29.0,3.221108,o,True
I42,31,gestures/girl_S.mp4,h_g,u,G,girl,1.0,30.0,1.9805317,u,True
I42,32,gestures/horse_S.mp4,h_ad,e,G,horse,1.0,31.0,2.3729477,e,True
I42,33,gestures/baby_POS.mp4,t_ddy,e,S,baby,1.0,32.0,1.755093,e,True
I42,34,gestures/baby_POS.mp4,bl_nket,a,S,baby,1.0,33.0,1.4183477,a,True
I42,35,gestures/frog_POS.mp4,tong_e,u,S,frog,1.0,34.0,3.078506,u,True
I42,36,gestures/horse_POS.mp4,mo_th,u,S,horse,1.0,35.0,2.6449847,u,True
I42,37,gestures/baby_PL.mp4,sm_le,i,S,baby,1.0,36.0,1.7897822,a,False
I42,38,gestures/cat_PL.mp4,sl_ep,e,S,cat,1.0,37.0,1.9225082,e,True
I42,39,gestures/boy_POS.mp4,t-sh_rt,i,S,boy,1.0,38.0,2.0269547,i,True
I42,40,gestures/dog_POS.mp4,to_th,o,S,dog,1.0,39.0,3.0394967,o,True
I42,41,gestures/car_POS.mp4,whe_l,e,S,car,1.0,40.0,4.673229,a,False
I42,42,gestures/frog_POS.mp4,fo_t,o,S,frog,1.0,41.0,2.4814227,o,True
I42,43,gestures/horse_PL.mp4,k_ck,i,S,horse,1.0,42.0,1.7632451,i,True
I42,44,gestures/girl_PL.mp4,wh_stle,i,S,girl,1.0,43.0,3.7927604,i,True
I42,45,gestures/car_PL.mp4,m_ve,o,S,car,1.0,44.0,3.8654325,u,False
I42,46,gestures/boy_POS.mp4,bo_k,o,S,boy,1.0,45.0,1.6586112,o,True
I42,47,gestures/dog_PL.mp4,b_rk,a,S,dog,1.0,46.0,3.1047902,u,False
I42,48,gestures/dog_PL.mp4,pl_y,a,S,dog,1.0,47.0,1.6330687,a,True
I42,49,gestures/cat_PL.mp4,lo_k,o,S,cat,1.0,48.0,3.1160834,o,True
I42,50,gestures/horse_PL.mp4,w_lk,a,S,horse,1.0,49.0,4.2288504,a,True
I42,51,gestures/baby_PL.mp4,cr_wl,a,S,baby,1.0,50.0,5.5922403,u,False
I42,52,gestures/frog_PL.mp4,list_n,e,S,frog,1.0,51.0,2.6649835,e,True
I42,53,gestures/boy_PL.mp4,po_nt,i,S,boy,1.0,52.0,2.4445126,i,True
I42,54,gestures/girl_POS.mp4,ha_r,i,S,girl,1.0,53.0,1.3790512,i,True
I42,55,gestures/dog_POS.mp4,n_ck,e,S,dog,1.0,54.0,2.032834,e,True
I42,56,gestures/cat_POS.mp4,n_se,o,S,cat,1.0,55.0,1.8441709,o,True
I42,57,gestures/horse_POS.mp4,h_ad,e,S,horse,1.0,56.0,2.5896316,e,True
I42,58,gestures/frog_PL.mp4,j_mp,u,S,frog,1.0,57.0,1.9867309,u,True
I42,59,gestures/girl_PL.mp4,h_g,u,S,girl,1.0,58.0,1.7526798,u,True
I42,60,gestures/car_POS.mp4,wind_w,o,S,car,1.0,59.0,1.5382115,o,True
I42,61,gestures/cat_POS.mp4,ta_l,i,S,cat,1.0,60.0,1.4328973,i,True
I42,62,gestures/girl_POS.mp4,dr_ss,e,S,girl,1.0,61.0,1.6641015,e,True
I42,63,gestures/car_PL.mp4,cr_sh,a,S,car,1.0,62.0,2.60688,a,True
I42,64,gestures/boy_PL.mp4,w_ve,a,S,boy,1.0,63.0,3.934726,e,False
