subject,TrialNumber,gestures,target,corrAns,condition,gestureSet,ran,order,RT,answer,correct
K11,1,gestures/car_S.mp4,m_ve,o,G,car,1.0,0.0,33.09379,o,True
K11,2,gestures/baby_S.mp4,sm_le,i,G,baby,1.0,1.0,9.181969,i,True
K11,3,gestures/boy_S.mp4,po_nt,i,G,boy,1.0,2.0,7.0091877,i,True
K11,4,gestures/car_S.mp4,cr_sh,a,G,car,1.0,3.0,4.0146217,a,True
K11,5,gestures/girl_S.mp4,dr_ss,e,G,girl,1.0,4.0,5.6968966,e,True
K11,6,gestures/cat_S.mp4,ta_l,i,G,cat,1.0,5.0,21.080465,e,False
K11,7,gestures/baby_S.mp4,cr_wl,a,G,baby,1.0,6.0,18.21031,a,True
K11,8,gestures/car_S.mp4,wind_w,o,G,car,1.0,7.0,2.9605029,o,True
K11,9,gestures/cat_S.mp4,n_se,o,G,cat,1.0,8.0,2.063742,o,True
K11,10,gestures/baby_S.mp4,t_ddy,e,G,baby,1.0,9.0,3.0695264,e,True
K11,11,gestures/dog_S.mp4,n_ck,e,G,dog,1.0,10.0,7.2971063,e,True
K11,12,gestures/girl_S.mp4,h_g,u,G,girl,1.0,11.0,20.75919,o,False
K11,13,gestures/frog_S.mp4,fo_t,o,G,frog,1.0,12.0,2.67422,o,True
K11,14,gestures/dog_S.mp4,b_rk,a,G,dog,1.0,13.0,13.493998,i,False
K11,15,gestures/boy_S.mp4,bo_k,o,G,boy,1.0,14.0,2.7617579,o,True
K11,16,gestures/dog_S.mp4,pl_y,a,G,dog,1.0,15.0,2.5308447,a,True
K11,17,gestures/boy_S.mp4,w_ve,a,G,boy,1.0,16.0,12.544885,e,False
K11,18,gestures/cat_S.mp4,sl_ep,e,G,cat,1.0,17.0,9.127533,e,True
K11,19,gestures/frog_S.mp4,tong_e,u,G,frog,1.0,18.0,27.249897,e,False
K11,20,gestures/horse_S.mp4,k_ck,i,G,horse,1.0,19.0,3.4244688,i,True
K11,21,gestures/girl_S.mp4,ha_r,i,G,girl,1.0,20.0,3.482868,a,False
K11,22,gestures/boy_S.mp4,t-sh_rt,i,G,boy,1.0,21.0,2.9348998,i,True
K11,23,gestures/girl_S.mp4,wh_stle,i,G,girl,1.0,22.0,14.378353,a,False
K11,24,gestures/cat_S.mp4,lo_k,o,G,cat,1.0,23.0,4.008388,o,True
K11,25,gestures/frog_S.mp4,list_n,e,G,frog,1.0,24.0,11.575505,e,True
K11,26,gestures/car_S.mp4,whe_l,e,G,car,1.0,25.0,3.6938727,e,True
K11,27,gestures/horse_S.mp4,w_lk,a,G,horse,1.0,26.0,3.7421157,e,False
K11,28,gestures/frog_S.mp4,j_mp,u,G,frog,1.0,27.0,2.6809945,u,True
K11,29,gestures/horse_S.mp4,h_ad,e,G,horse,1.0,28.0,4.878391,e,True
K11,30,gestures/baby_S.mp4,bl_nket,a,G,baby,1.0,29.0,4.5276914,a,True
K11,31,gestures/horse_S.mp4,mo_th,u,G,horse,1.0,30.0,13.967178,u,True
K11,32,gestures/dog_S.mp4,to_th,o,G,dog,1.0,31.0,25.280926,u,False
K11,33,gestures/cat_POS.mp4,ta_l,i,S,cat,1.0,32.0,19.75416,e,False
K11,34,gestures/dog_PL.mp4,pl_y,a,S,dog,1.0,33.0,6.316426,a,True
K11,35,gestures/horse_PL.mp4,w_lk,a,S,horse,1.0,34.0,4.88076,a,True
K11,36,gestures/dog_POS.mp4,to_th,o,S,dog,1.0,35.0,3.1661942,o,True
K11,37,gestures/frog_POS.mp4,fo_t,o,S,frog,1.0,36.0,1.9493406,o,True
K11,38,gestures/boy_PL.mp4,po_nt,i,S,boy,1.0,37.0,3.9629445,i,True
K11,39,gestures/car_PL.mp4,m_ve,o,S,car,1.0,38.0,2.2983882,o,True
K11,40,gestures/dog_PL.mp4,b_rk,a,S,dog,1.0,39.0,2.5108569,o,False
K11,41,gestures/car_POS.mp4,wind_w,o,S,car,1.0,40.0,2.163625,o,True
K11,42,gestures/baby_PL.mp4,sm_le,i,S,baby,1.0,41.0,1.9527526,i,True
K11,43,gestures/horse_POS.mp4,mo_th,u,S,horse,1.0,42.0,2.659811,o,False
K11,44,gestures/girl_PL.mp4,h_g,u,S,girl,1.0,43.0,5.889143,a,False
K11,45,gestures/cat_PL.mp4,sl_ep,e,S,cat,1.0,44.0,2.6430786,e,True
K11,46,gestures/cat_PL.mp4,lo_k,o,S,cat,1.0,45.0,3.742475,o,True
K11,47,gestures/baby_PL.mp4,cr_wl,a,S,baby,1.0,46.0,10.322738,o,False
K11,48,gestures/baby_POS.mp4,t_ddy,e,S,baby,1.0,47.0,2.4145591,e,True
K11,49,gestures/horse_POS.mp4,h_ad,e,S,horse,1.0,48.0,2.7345238,e,True
K11,50,gestures/boy_PL.mp4,w_ve,a,S,boy,1.0,49.0,3.480515,a,True
K11,51,gestures/frog_POS.mp4,tong_e,u,S,frog,1.0,50.0,3.655343,i,False
K11,52,gestures/boy_POS.mp4,bo_k,o,S,boy,1.0,51.0,1.7257661,o,True
K11,53,gestures/car_PL.mp4,cr_sh,a,S,car,1.0,52.0,1.9596933,a,True
K11,54,gestures/dog_POS.mp4,n_ck,e,S,dog,1.0,53.0,10.2121,a,False
K11,55,gestures/boy_POS.mp4,t-sh_rt,i,S,boy,1.0,54.0,2.048482,i,True
K11,56,gestures/frog_PL.mp4,j_mp,u,S,frog,1.0,55.0,2.015594,u,True
K11,57,gestures/girl_POS.mp4,ha_r,i,S,girl,1.0,56.0,2.209779,e,False
K11,58,gestures/cat_POS.mp4,n_se,o,S,cat,1.0,57.0,2.3235037,o,True
K11,59,gestures/frog_PL.mp4,list_n,e,S,frog,1.0,58.0,2.8930013,e,True
K11,60,gestures/girl_PL.mp4,wh_stle,i,S,girl,1.0,59.0,1.8501192,u,False
K11,61,gestures/car_POS.mp4,whe_l,e,S,car,1.0,60.0,2.4627357,a,False
K11,62,gestures/horse_PL.mp4,k_ck,i,S,horse,1.0,61.0,2.0760107,i,True
K11,63,gestures/girl_POS.mp4,dr_ss,e,S,girl,1.0,62.0,2.2959352,e,True
K11,64,gestures/baby_POS.mp4,bl_nket,a,S,baby,1.0,63.0,5.9850874,a,True
