subject,TrialNumber,gestures,target,corrAns,condition,gestureSet,ran,order,RT,answer,correct
M31,1,gestures/horse_PL.mp4,w_lk,a,S,horse,1.0,0.0,3.1151931,a,True
M31,2,gestures/girl_PL.mp4,wh_stle,i,S,girl,1.0,1.0,2.4396138,i,True
M31,3,gestures/girl_POS.mp4,dr_ss,e,S,girl,1.0,2.0,1.1396235,e,True
M31,4,gestures/dog_POS.mp4,n_ck,e,S,dog,1.0,3.0,1.878636,e,True
M31,5,gestures/dog_PL.mp4,pl_y,a,S,dog,1.0,4.0,1.3547175,a,True
M31,6,gestures/boy_POS.mp4,t-sh_rt,i,S,boy,1.0,5.0,2.3545308,i,True
M31,7,gestures/girl_PL.mp4,h_g,u,S,girl,1.0,6.0,3.690345,u,True
M31,8,gestures/horse_PL.mp4,k_ck,i,S,horse,1.0,7.0,1.578608,i,True
M31,9,gestures/boy_PL.mp4,w_ve,a,S,boy,1.0,8.0,1.2284129,a,True
M31,10,gestures/car_POS.mp4,wind_w,o,S,car,1.0,9.0,1.1748178,o,True
M31,11,gestures/boy_POS.mp4,bo_k,o,S,boy,1.0,10.0,1.2007939,o,True
M31,12,gestures/frog_POS.mp4,fo_t,o,S,frog,1.0,11.0,1.2675576,o,True
M31,13,gestures/dog_PL.mp4,b_rk,a,S,dog,1.0,12.0,1.566573,a,True
M31,14,gestures/cat_POS.mp4,n_se,o,S,cat,1.0,13.0,1.3643345,o,True
M31,15,gestures/frog_PL.mp4,list_n,e,S,frog,1.0,14.0,1.407618,e,True
M31,16,gestures/cat_PL.mp4,lo_k,o,S,cat,1.0,15.0,1.5070812,o,True
M31,17,gestures/frog_PL.mp4,j_mp,u,S,frog,1.0,16.0,1.7792643,u,True
M31,18,gestures/baby_POS.mp4,bl_nket,a,S,baby,1.0,17.0,1.191817,a,True
M31,19,gestures/cat_PL.mp4,sl_ep,e,S,cat,1.0,18.0,1.420852,e,True
M31,20,gestures/baby_PL.mp4,sm_le,i,S,baby,1.0,19.0,1.0811981,i,True
M31,21,gestures/girl_POS.mp4,ha_r,i,S,girl,1.0,20.0,1.2236745,i,True
M31,22,gestures/car_PL.mp4,m_ve,o,S,car,1.0,21.0,1.117666,o,True
M31,23,gestures/frog_POS.mp4,tong_e,u,S,frog,1.0,22.0,1.2674439,u,True
M31,24,gestures/car_PL.mp4,cr_sh,a,S,car,1.0,23.0,1.1146686,a,True
M31,25,gestures/baby_POS.mp4,t_ddy,e,S,baby,1.0,24.0,1.3173232,e,True
M31,26,gestures/dog_POS.mp4,to_th,o,S,dog,1.0,25.0,1.1202164,o,True
M31,27,gestures/car_POS.mp4,whe_l,e,S,car,1.0,26.0,1.2486025,e,True
M31,28,gestures/baby_PL.mp4,cr_wl,a,S,baby,1.0,27.0,1.0711287,a,True
M31,29,gestures/horse_POS.mp4,mo_th,u,S,horse,1.0,28.0,1.7763575,u,True
M31,30,gestures/horse_POS.mp4,h_ad,e,S,horse,1.0,29.0,2.3530047,e,True
M31,31,gestures/boy_PL.mp4,po_nt,i,S,boy,1.0,30.0,1.1103021,i,True
M31,32,gestures/cat_POS.mp4,ta_l,i,S,cat,1.0,31.0,1.6461965,i,True
M31,33,gestures/frog_S.mp4,j_mp,u,G,frog,1.0,32.0,1.3467766,u,True
M31,34,gestures/frog_S.mp4,tong_e,u,G,frog,1.0,33.0,1.1852529,u,True
M31,35,gestures/horse_S.mp4,w_lk,a,G,horse,1.0,34.0,1.2661085,a,True
M31,36,gestures/girl_S.mp4,wh_stle,i,G,girl,1.0,35.0,1.1696061,i,True
M31,37,gestures/boy_S.mp4,t-sh_rt,i,G,boy,1.0,36.0,1.2186354,i,True
M31,38,gestures/dog_S.mp4,b_rk,a,G,dog,1.0,37.0,1.6406201,a,True
M31,39,gestures/dog_S.mp4,n_ck,e,G,dog,1.0,38.0,1.2007017,e,True
M31,40,gestures/cat_S.mp4,sl_ep,e,G,cat,1.0,39.0,1.3237932,e,True
M31,41,gestures/baby_S.mp4,cr_wl,a,G,baby,1.0,40.0,1.1545767,a,True
M31,42,gestures/car_S.mp4,m_ve,o,G,car,1.0,41.0,1.068321,o,True
M31,43,gestures/baby_S.mp4,t_ddy,e,G,baby,1.0,42.0,1.1617384,e,True
M31,44,gestures/dog_S.mp4,pl_y,a,G,dog,1.0,43.0,1.1535423,a,True
M31,45,gestures/dog_S.mp4,to_th,o,G,dog,1.0,44.0,1.0291026,o,True
M31,46,gestures/boy_S.mp4,po_nt,i,G,boy,1.0,45.0,1.0423347,i,True
M31,47,gestures/cat_S.mp4,n_se,o,G,cat,1.0,46.0,1.3723738,o,True
M31,48,gestures/boy_S.mp4,w_ve,a,G,boy,1.0,47.0,1.0779806,a,True
M31,49,gestures/girl_S.mp4,dr_ss,e,G,girl,1.0,48.0,1.2842649,e,True
M31,50,gestures/girl_S.mp4,h_g,u,G,girl,1.0,49.0,1.6299654,a,False
M31,51,gestures/horse_S.mp4,mo_th,u,G,horse,1.0,50.0,1.2805457,u,True
M31,52,gestures/horse_S.mp4,h_ad,e,G,horse,1.0,51.0,1.305605,e,True
M31,53,gestures/horse_S.mp4,k_ck,i,G,horse,1.0,52.0,1.0220622,i,True
M31,54,gestures/baby_S.mp4,sm_le,i,G,baby,1.0,53.0,0.9511256,i,True
M31,55,gestures/girl_S.mp4,ha_r,i,G,girl,1.0,54.0,1.0240694,i,True
M31,56,gestures/cat_S.mp4,lo_k,o,G,cat,1.0,55.0,1.0339198,o,True
M31,57,gestures/boy_S.mp4,bo_k,o,G,boy,1.0,56.0,0.9970805,o,True
M31,58,gestures/cat_S.mp4,ta_l,i,G,cat,1.0,57.0,0.9746338,i,True
M31,59,gestures/car_S.mp4,whe_l,e,G,car,1.0,58.0,1.0914909,e,True
M31,60,gestures/frog_S.mp4,list_n,e,G,frog,1.0,59.0,1.0970771,e,True
M31,61,gestures/frog_S.mp4,fo_t,o,G,frog,1.0,60.0,1.1120135,o,True
M31,62,gestures/car_S.mp4,wind_w,o,G,car,1.0,61.0,1.0717107,o,True
M31,63,gestures/car_S.mp4,cr_sh,a,G,car,1.0,62.0,1.0193456,a,True
M31,64,gestures/baby_S.mp4,bl_nket,a,G,baby,1.0,63.0,1.0610304,a,True
